"Time (s)","Acceleration x (m/s^2)","Acceleration y (m/s^2)","Acceleration z (m/s^2)","Absolute acceleration (m/s^2)"
1.685108334E-2,4.051923981E0,5.044659576E0,7.697892151E0,1.005605399E1
2.687408333E-2,2.848276978E0,5.715714111E0,8.731343079E0,1.081750533E1
3.689708334E-2,2.602787476E0,5.373525696E0,9.812095642E0,1.148592626E1
4.692008334E-2,2.785557404E0,4.358785858E0,1.075139236E1,1.193108469E1
5.694308333E-2,2.785108337E0,4.125271454E0,1.092772568E1,1.200790912E1
6.696608334E-2,3.057092743E0,4.356540527E0,1.015293686E1,1.146330617E1
7.698908334E-2,3.392694855E0,4.247267761E0,9.118737488E0,1.061607438E1
8.701208334E-2,3.756438446E0,3.968397675E0,8.689579926E0,1.026488233E1
9.703508334E-2,3.831432495E0,3.943100281E0,9.091793518E0,1.062490584E1
1.070580833E-1,3.538791046E0,4.253255310E0,9.833800507E0,1.128347709E1
1.170810833E-1,3.214565277E0,4.594545593E0,1.027029282E1,1.170137572E1
1.271040833E-1,3.012635193E0,4.663851471E0,1.046863037E1,1.184988199E1
1.371270833E-1,3.001109161E0,4.692142639E0,1.052880524E1,1.191128030E1
1.471500833E-1,3.264561310E0,4.634213104E0,1.042851379E1,1.186959105E1
1.571730833E-1,3.554208984E0,4.459526367E0,1.012269974E1,1.161846922E1
1.671960833E-1,3.893852692E0,4.375700684E0,9.781259766E0,1.140095995E1
1.772200833E-1,4.135150909E0,4.354594574E0,9.453890533E0,1.119991130E1
1.872420833E-1,4.207151184E0,4.306993561E0,9.198521576E0,1.099377614E1
1.972660833E-1,4.161047058E0,4.205354919E0,8.985963593E0,1.075857167E1
2.072890833E-1,4.107608185E0,4.035158844E0,8.569379883E0,1.032420571E1
2.173120833E-1,3.932771759E0,3.849095764E0,7.913443909E0,9.638714977E0
2.273350833E-1,3.635040894E0,3.770359497E0,7.252568207E0,8.945886129E0
2.373580833E-1,3.472928009E0,3.782184906E0,6.757547607E0,8.487084381E0
2.473810833E-1,3.416345673E0,3.911815338E0,6.367159424E0,8.216716870E0
2.574040833E-1,3.256178741E0,4.045337677E0,5.954018555E0,7.900493267E0
2.674270833E-1,3.107238464E0,4.136797485E0,5.580694885E0,7.610005237E0
2.774500833E-1,3.159629517E0,4.197122040E0,5.474565582E0,7.587487095E0
2.874730833E-1,3.359164581E0,4.177662506E0,5.742658081E0,7.855887762E0
2.974960833E-1,3.696413269E0,4.042643280E0,6.304739227E0,8.352016072E0
3.075190833E-1,3.900888062E0,3.860322418E0,6.716682587E0,8.673686749E0
3.175420833E-1,3.928430786E0,3.663481750E0,7.060367889E0,8.871440791E0
3.275650833E-1,3.795058136E0,3.518882446E0,7.238796844E0,8.898605491E0
3.375880833E-1,3.603905640E0,3.163671112E0,7.246730347E0,8.689767056E0
3.476110833E-1,3.706442413E0,3.133733368E0,7.543862457E0,8.970388005E0
3.576340833E-1,4.000281372E0,3.129991150E0,7.663613434E0,9.194023413E0
3.676570833E-1,4.487368469E0,2.695893860E0,8.139773254E0,9.677821455E0
3.776800833E-1,4.904401245E0,2.442470856E0,8.127498779E0,9.801788197E0
3.877030833E-1,5.037324829E0,2.262245636E0,7.952961731E0,9.682045086E0
3.977260833E-1,4.173620911E0,1.837578735E0,8.269104309E0,9.443192955E0
4.077490833E-1,3.531905365E0,1.711989899E0,8.986861725E0,9.806576802E0
4.177720833E-1,2.583477631E0,1.443897400E0,9.443112946E0,9.896038524E0
4.277950833E-1,1.976040802E0,8.981323242E-1,9.216633911E0,9.468776034E0
4.378180833E-1,2.504441986E0,3.987707520E-1,9.313632202E0,9.652719439E0
4.478410833E-1,2.896626434E0,7.738906860E-2,9.195976868E0,9.641702356E0
4.578640833E-1,2.889441376E0,1.199006653E-1,8.591384125E0,9.065049852E0
4.678870833E-1,2.907404022E0,4.323010254E-1,8.132588196E0,8.647477845E0
4.779100833E-1,2.406994629E0,3.179388428E-1,7.726782074E0,8.099251167E0
4.879330833E-1,1.985770569E0,-1.148411865E0,7.340585175E0,7.690664813E0
4.979560833E-1,2.254012756E0,-1.582060089E0,8.794212341E0,9.215294805E0
5.079790833E-1,2.137704620E0,-1.212927704E0,1.224289078E1,1.248716738E1
5.180020833E-1,2.941533051E0,-3.278182983E-1,1.199560501E1,1.235534787E1
5.280250833E-1,2.353406067E0,-7.267387390E-1,5.536836090E0,6.059968911E0
5.380480833E-1,2.936593323E0,-9.297166443E-1,4.675676880E0,5.599098826E0
5.480710833E-1,4.675078125E0,-9.162446594E-1,6.453230438E0,8.021224522E0
5.580940833E-1,5.292693787E0,-1.527124329E0,8.245154114E0,9.916011426E0
5.681170833E-1,1.016371445E1,-4.470902710E0,2.001996826E1,2.289299438E1
5.781400833E-1,6.004463654E0,-3.266207886E-1,1.092024124E1,1.246643228E1
5.881630833E-1,1.058448944E0,4.192631378E0,4.893324280E0,6.530168034E0
5.981860833E-1,-1.968256989E0,1.728006592E0,5.422324219E0,6.021764051E0
6.082090833E-1,-4.770280151E0,-3.189866638E-1,3.652255096E0,6.016335471E0
6.182320833E-1,-6.453230438E0,-6.532415771E-1,3.832031250E0,7.533616074E0
6.282550833E-1,-6.581813049E0,8.397537231E-2,3.923491058E0,7.662969200E0
6.382780833E-1,-3.581751709E0,3.213367767E0,8.684640198E0,9.928627955E0
6.483010833E-1,2.510878601E0,8.240962830E0,1.987042923E1,2.165760692E1
6.583240833E-1,1.179846497E0,4.998705139E0,1.087308929E1,1.202510547E1
6.683470833E-1,-2.386786652E0,3.462300110E-1,3.927532654E0,4.608919449E0
6.783700833E-1,-3.098855896E0,-4.293072510E-1,2.624941406E0,4.083813165E0
6.883930833E-1,-9.138496399E-1,1.354682922E-1,2.074685669E0,2.271077596E0
6.984170833E-1,1.605411530E0,1.565594330E0,3.024460602E0,3.765075526E0
7.084400833E-1,1.876797180E0,2.653382263E0,1.957928467E0,3.794244190E0
7.184630833E-1,-3.271297302E0,1.052760773E0,3.466790771E0,4.881426998E0
7.284860833E-1,-6.225703583E0,-1.426533508E-1,5.082680511E0,8.038244601E0
7.385090833E-1,-7.533533936E0,8.023315430E-2,4.730013885E0,8.895706958E0
7.485320833E-1,-8.983269196E0,-2.936892700E-1,5.241949310E0,1.040497051E1
7.585550833E-1,-8.827892303E0,-5.742059326E-1,5.406606903E0,1.036787313E1
7.685780833E-1,-8.576415253E0,-8.993298340E-1,5.964496765E0,1.048517594E1
7.786010833E-1,-8.495134277E0,-1.525178375E0,5.358407135E0,1.015903551E1
7.886240833E-1,-8.377628632E0,-2.242337036E0,4.472998352E0,9.758096696E0
7.986470833E-1,-8.317154388E0,-2.300116882E0,3.623215485E0,9.359128445E0
8.086700833E-1,-8.863967285E0,-1.734742584E0,2.547851715E0,9.384604213E0
8.186930833E-1,-1.018242554E1,-1.046473846E0,1.746867371E0,1.038404752E1
8.287160833E-1,-1.162602356E1,1.197509766E-2,8.283773804E-1,1.165550412E1
8.387390833E-1,-1.230755630E1,8.370593262E-1,1.032253418E0,1.237910165E1
8.487620833E-1,-1.328906525E1,-1.035396881E0,1.849254456E0,1.345700724E1
8.587850833E-1,-1.351165237E1,-2.770139465E0,1.810335388E0,1.391099338E1
8.688080833E-1,-1.324535614E1,-2.925067291E0,2.269281006E0,1.375300383E1
8.788310833E-1,-1.224468704E1,-3.060086517E0,3.012186127E0,1.297573719E1
8.888540833E-1,-1.231534012E1,-3.309318237E0,2.819237366E0,1.306014122E1
8.988770833E-1,-1.389769958E1,-3.611839142E0,2.422711945E0,1.456231331E1
9.089000833E-1,-1.449720291E1,-2.865940247E0,2.675087128E0,1.501794250E1
9.189230833E-1,-1.525762161E1,-2.020947418E0,2.204914856E0,1.554801901E1
9.289460833E-1,-1.603465576E1,-1.724713440E0,1.835632782E0,1.623127751E1
9.389690833E-1,-1.651770126E1,-1.468296661E0,1.722917175E0,1.667209626E1
9.489920833E-1,-1.745475266E1,-1.349294128E0,1.376986542E0,1.756089624E1
9.590150833E-1,-1.796189804E1,-1.597328339E0,1.329086151E0,1.808169541E1
9.690380833E-1,-1.695958237E1,-1.521136780E0,1.528621216E0,1.709613915E1
9.790610833E-1,-1.588406891E1,-1.215771790E0,1.402583313E0,1.599215389E1
9.890840833E-1,-1.562001801E1,-1.465602264E0,1.269510040E0,1.573990496E1
9.991070833E-1,-1.571656723E1,-1.284029846E0,1.190025330E0,1.581377180E1
1.009130708E0,-1.635244492E1,-4.379891968E-1,3.333567810E-1,1.636170578E1
1.019153708E0,-1.660511948E1,8.009843445E-1,-2.024539948E0,1.674724845E1
1.029176708E0,-1.669762711E1,1.908531189E0,-3.856280823E0,1.724308975E1
1.039199708E0,-1.579440536E1,2.136656799E0,-3.586691437E0,1.633685706E1
1.049222708E0,-1.546928146E1,2.893333282E0,-4.691992950E0,1.642208404E1
1.059245708E0,-1.385189484E1,2.045795746E0,-3.121159515E0,1.434579756E1
1.069268708E0,-1.330583038E1,6.240522766E-1,-4.936734009E-1,1.332960153E1
1.079291708E0,-1.324849960E1,2.959346008E-1,5.710624695E-1,1.326410311E1
1.089314708E0,-1.160836029E1,-2.592608643E-1,5.376818848E-1,1.162369763E1
1.099337708E0,-1.055350388E1,-1.925296326E0,1.851649475E-1,1.072928218E1
1.109360708E0,-9.429940338E0,-3.438798981E0,1.722917175E-1,1.003886436E1
1.119384708E0,-7.729775848E0,-3.940405884E0,1.478026428E0,8.801181473E0
1.129407708E0,-5.600304108E0,-3.594924316E0,2.397564240E0,7.073556476E0
1.139430708E0,-4.476590881E0,-3.507506104E0,2.255359955E0,6.117933762E0
1.149453708E0,-3.710633698E0,-3.106490021E0,4.984634399E-1,4.864930471E0
1.159476708E0,-3.711531830E0,-3.398682404E0,1.005908203E-1,5.033550349E0
1.169499708E0,-5.113366699E0,-4.308191071E0,9.136999512E-1,6.748472190E0
1.179522708E0,-5.735922089E0,-4.183350677E0,1.062490540E0,7.178447690E0
1.189545708E0,-5.333409119E0,-3.143463135E0,8.936416626E-2,6.191494106E0
1.199568708E0,-5.808521118E0,-3.199746094E0,-2.064207458E-1,6.634749594E0
1.209591708E0,-5.388943634E0,-1.462009735E0,-2.684816895E0,6.195678148E0
1.219614708E0,-6.974446564E0,-8.479866028E-1,-3.253933411E0,7.742742976E0
1.229637708E0,-8.919501801E0,-1.236728210E0,-1.989213409E0,9.221929246E0
1.239660708E0,-9.069190521E0,-1.392554169E0,-1.439556427E0,9.287720201E0
1.249683708E0,-7.967930603E0,-1.721719666E0,-4.599934387E-1,8.164792139E0
1.259706708E0,-7.696844330E0,-1.268611908E0,2.896476746E-1,7.806067165E0
1.269729708E0,-7.962691498E0,-7.017407227E-1,-5.083428955E-1,8.009700895E0
1.279752708E0,-7.949369202E0,-9.226812744E-1,-8.714877319E-1,8.050049832E0
1.289775708E0,-8.445737000E0,-1.772464142E0,-1.144070892E0,8.705228360E0
1.299798708E0,-8.436007233E0,-1.106049957E0,1.348845062E0,8.614461535E0
1.309821708E0,-8.114176483E0,-1.356179810E-1,2.031425629E0,8.365700349E0
1.319844708E0,-8.682993622E0,-4.083508301E-1,6.744973755E-1,8.718719823E0
1.329867708E0,-9.447753296E0,-2.407294006E0,-6.698570251E-1,9.772605344E0
1.339890708E0,-8.953032074E0,-4.202810211E0,-6.912625122E-1,9.914546931E0
1.349913708E0,-8.628955994E0,-3.847000122E0,-1.723815308E0,9.603636327E0
1.359936708E0,-9.986483002E0,-3.423830109E0,-3.015030212E0,1.097920136E1
1.369959708E0,-1.129386429E1,-3.889212341E0,-3.213367767E0,1.236944120E1
1.379982708E0,-1.163754959E1,-3.970792694E0,-3.108885040E0,1.268325358E1
1.390005708E0,-1.169323380E1,-4.373006287E0,-1.818418579E0,1.261592433E1
1.400028708E0,-1.135583542E1,-5.016518097E0,-1.660197601E0,1.252504323E1
1.410051708E0,-1.082967957E1,-4.670138397E0,-2.363285522E0,1.202818651E1
1.420074708E0,-1.059571609E1,-3.580703888E0,-2.397264862E0,1.143842291E1
1.430097708E0,-1.010668304E1,-2.673739929E0,-1.956581268E0,1.063588913E1
1.440120708E0,-1.008393036E1,-2.209405518E0,-2.059716797E-1,1.032519000E1
1.450143708E0,-1.070079758E1,-2.489922180E0,7.779322815E-1,1.101417087E1
1.460166708E0,-1.047865952E1,-3.887116699E0,1.244512024E0,1.124547872E1
1.470190708E0,-9.900411987E0,-5.138065338E0,1.736987915E0,1.128871117E1
1.480213708E0,-1.018347336E1,-5.359305267E0,1.854792938E0,1.165613741E1
1.490236708E0,-1.040261765E1,-4.786745911E0,1.494492188E0,1.154819887E1
1.500259708E0,-1.046563660E1,-3.326831818E0,2.031725006E0,1.116804664E1
1.510282708E0,-1.258687546E1,-3.859124908E0,2.398162994E0,1.338183338E1
1.520305708E0,-1.285152512E1,-4.574636993E0,2.711162109E0,1.390824940E1
1.530328708E0,-1.216819611E1,-4.916675720E0,2.469564514E0,1.335430438E1
1.540351708E0,-1.176912598E1,-6.323600006E0,1.607357483E0,1.345673963E1
1.550374708E0,-1.102247864E1,-7.645950165E0,5.797444153E-1,1.342727421E1
1.560397708E0,-9.748627625E0,-7.020850067E0,4.758604431E-1,1.202308277E1
1.570420708E0,-1.000190094E1,-6.472540283E0,1.314865723E0,1.198585299E1
1.580443708E0,-9.631271667E0,-6.858587494E0,3.492387543E0,1.232876259E1
1.590466708E0,-1.183918030E1,-7.560627594E0,5.850284271E0,1.521693484E1
1.600489708E0,-1.095077774E1,-7.965236206E0,5.067711639E0,1.445843083E1
1.610512708E0,-1.046279251E1,-8.319250031E0,3.839365997E0,1.390757633E1
1.620535708E0,-1.207224564E1,-5.652695160E0,3.423680420E0,1.376276371E1
1.630558708E0,-1.230501160E1,-2.213596802E0,3.715423737E0,1.304291742E1
1.640581708E0,-1.251921616E1,-3.327580261E-1,3.603157196E0,1.303166309E1
1.650604708E0,-1.266501297E1,7.867639160E-1,2.549797668E0,1.294306838E1
1.660627708E0,-1.144879211E1,2.350262604E0,1.444047089E0,1.177641062E1
1.670650708E0,-9.663604431E0,2.398013306E0,2.498604126E0,1.026541480E1
1.680673708E0,-8.777746582E0,7.716453552E-1,4.135001221E0,9.733576255E0
1.690696708E0,-8.407716064E0,-1.139131165E-1,6.150559845E0,1.041787176E1
1.700719708E0,-7.437583466E0,-1.110690308E-1,8.139024811E0,1.102604684E1
1.710743708E0,-6.386469269E0,-2.963836670E-2,9.371861115E0,1.134106031E1
1.720766708E0,-5.906267853E0,2.020797729E-2,9.604477386E0,1.127521149E1
1.730789708E0,-5.712870026E0,-2.550695801E-1,9.316625977E0,1.093167252E1
1.740812708E0,-4.893324280E0,2.157014465E-1,8.980874176E0,1.022972388E1
1.750835708E0,-4.093836823E0,7.625143433E-1,9.611812134E0,1.047510671E1
1.760858708E0,-3.997886353E0,9.690847778E-1,1.064466431E1,1.141188410E1
1.770881708E0,-4.009711761E0,5.963598633E-1,1.008632538E1,1.087048265E1
1.780904708E0,-3.576512604E0,2.619552612E-1,8.989556122E0,9.678439039E0
1.790927708E0,-2.794688416E0,2.107617188E-1,8.723110199E0,9.162278941E0
1.800950708E0,-1.976190491E0,1.037342834E-1,8.671018524E0,8.893967163E0
1.810973708E0,-6.599775696E-1,8.098159790E-2,8.320746918E0,8.347272470E0
1.820996708E0,1.895059204E-1,-6.405180359E-1,7.969577179E0,7.997520632E0
1.831019708E0,-2.794688416E-1,-1.499880981E0,7.913743286E0,8.059471359E0
1.841042708E0,-8.544232178E-1,-1.080153809E0,8.421337738E0,8.533211622E0
1.851065708E0,-1.648671570E0,-2.125579834E-1,8.595725098E0,8.754986510E0
1.861088708E0,-2.305505676E0,2.850073242E-1,8.270601196E0,8.590659448E0
1.871111708E0,-2.536625061E0,9.131011963E-1,7.868836670E0,8.317860965E0
1.881134708E0,-3.185974731E0,1.057550812E0,7.283553772E0,8.019912983E0
1.891157708E0,-3.831582184E0,9.948312378E-1,7.081773376E0,8.113089755E0
1.901180708E0,-3.805236969E0,7.927514648E-1,6.974895630E0,7.984826380E0
1.911203708E0,-3.148552551E0,1.886077881E-1,7.060367889E0,7.732900542E0
1.921226708E0,-2.333497467E0,-5.257067871E-1,7.525151367E0,7.896168764E0
1.931250708E0,-1.639690247E0,-1.217717743E0,7.271578674E0,7.552964784E0
1.941273708E0,-1.437909851E0,-1.713486786E0,7.276668091E0,7.612720946E0
1.951296708E0,-1.819466400E0,-1.865869904E0,7.709118805E0,8.137717200E0
1.961319708E0,-2.342329102E0,-1.663191376E0,7.681127014E0,8.200757488E0
1.971342708E0,-2.839445343E0,-1.398841095E0,7.787406006E0,8.406122683E0
1.981365708E0,-3.288810883E0,-1.275647278E0,8.623716888E0,9.317298212E0
1.991388708E0,-3.875890045E0,-1.510658569E0,9.163793793E0,1.006378307E1
2.001411708E0,-3.962709503E0,-1.909579010E0,8.769962769E0,9.811310084E0
2.011434708E0,-4.309987335E0,-2.646346893E0,8.278534698E0,9.701199898E0
2.021457708E0,-3.964805145E0,-3.069666595E0,8.434061279E0,9.812029480E0
2.031480708E0,-3.360212402E0,-3.308569794E0,8.543334045E0,9.758392187E0
2.041503708E0,-3.141068115E0,-3.717070312E0,8.551117859E0,9.838929680E0
2.051526708E0,-3.064577179E0,-3.885470123E0,8.786578217E0,1.008426835E1
2.061549708E0,-2.750979309E0,-3.966002655E0,8.420589294E0,9.705842997E0
2.071572708E0,-2.185754700E0,-4.112547913E0,7.718549194E0,9.014797591E0
2.081595708E0,-2.591710510E0,-4.095483398E0,7.172335052E0,8.656346674E0
2.091618708E0,-3.426374817E0,-3.884721680E0,6.571035461E0,8.367174789E0
2.101641708E0,-3.873045959E0,-3.684737549E0,5.860463104E0,7.932389527E0
2.111664708E0,-4.131857758E0,-3.655398560E0,5.351671143E0,7.685998385E0
2.121687708E0,-4.330644379E0,-3.569477234E0,5.275329895E0,7.702256420E0
2.131711708E0,-4.573589172E0,-3.778592377E0,5.485343170E0,8.079880442E0
2.141734708E0,-4.702620850E0,-4.534370728E0,5.585185547E0,8.594734338E0
2.151757708E0,-5.090464325E0,-4.562961273E0,6.141428833E0,9.189700253E0
2.161780708E0,-6.484964447E0,-4.410727844E0,6.854096832E0,1.041575381E1
2.171803708E0,-7.548053741E0,-4.372706909E0,7.223678284E0,1.132586460E1
2.181826708E0,-8.708590393E0,-4.554878082E0,7.334597626E0,1.226306582E1
2.191849708E0,-1.030502060E1,-4.341122589E0,7.200326843E0,1.329975569E1
2.201872708E0,-1.187959625E1,-3.801494751E0,7.069049835E0,1.433693255E1
2.211895708E0,-1.223840012E1,-3.260519714E0,7.514373779E0,1.472668461E1
2.221918708E0,-1.179966248E1,-2.822231140E0,8.271649017E0,1.468390958E1
2.231941708E0,-1.088940536E1,-2.284698944E0,8.209677887E0,1.382742960E1
2.241964708E0,-9.932744751E0,-1.852547607E0,6.959777069E0,1.226906059E1
2.251987708E0,-1.001821701E1,-3.229983215E0,5.416186981E0,1.183775929E1
2.262010708E0,-9.576784973E0,-4.299808502E0,5.468428345E0,1.183667488E1
2.272033708E0,-8.871002655E0,-4.323159943E0,5.648653564E0,1.137065025E1
2.282056708E0,-8.444838867E0,-4.406386871E0,5.285508728E0,1.089349123E1
2.292079708E0,-8.407416687E0,-4.497996368E0,4.684209137E0,1.062348539E1
2.302102708E0,-8.881780243E0,-4.332141266E0,4.042643280E0,1.067691121E1
2.312125708E0,-9.143136749E0,-3.991300049E0,3.285966797E0,1.050357099E1
2.322148708E0,-9.248218231E0,-3.570525055E0,2.517015839E0,1.022807696E1
2.332171708E0,-9.443861389E0,-3.255280609E0,1.434317322E0,1.009161216E1
2.342194708E0,-9.698032837E0,-3.209475861E0,5.758525085E-1,1.023152884E1
2.352218708E0,-9.921069031E0,-3.250340881E0,9.205856323E-2,1.044034489E1
2.362241708E0,-9.569899292E0,-2.893033905E0,5.912704468E-2,9.997805441E0
2.372264708E0,-9.264085236E0,-2.640658722E0,6.286926270E-3,9.633088459E0
2.382287708E0,-9.262887726E0,-2.866389313E0,-1.538800049E-1,9.697471617E0
2.392310708E0,-9.185199280E0,-3.060834961E0,-1.601669312E-2,9.681779434E0
2.402333708E0,-9.074878693E0,-2.967279510E0,-5.044509888E-2,9.547812089E0
2.412356708E0,-9.115444336E0,-2.750230865E0,-5.240602112E-1,9.535708383E0
2.422379708E0,-9.242679749E0,-2.436782684E0,-1.032852173E0,9.614146993E0
2.432402708E0,-9.763446808E0,-1.942360840E0,-1.847158813E0,1.012470518E1
2.442425708E0,-1.005773483E1,-1.409618683E0,-1.707199860E0,1.029852349E1
2.452448708E0,-1.059002792E1,-1.055155792E0,-1.927391968E0,1.081558528E1
2.462471708E0,-1.166778671E1,-9.728269958E-1,-2.420316925E0,1.195581754E1
2.472494708E0,-1.240814713E1,-1.251996460E0,-2.556683350E0,1.273052395E1
2.482517708E0,-1.267743713E1,-1.049766998E0,-2.417772217E0,1.294855380E1
2.492540708E0,-1.228270798E1,-1.094673615E0,-2.243085480E0,1.253374078E1
2.502563708E0,-1.233599716E1,-1.591191101E0,-3.183430023E0,1.283911764E1
2.512586708E0,-1.211505661E1,-1.202599182E0,-4.407285004E0,1.294777983E1
2.522609708E0,-1.188887695E1,-3.029699707E-1,-5.512436829E0,1.310817096E1
2.532632708E0,-1.150268005E1,-1.820214844E-1,-6.202052765E0,1.306943911E1
2.542655708E0,-1.099209183E1,-4.153862000E-1,-5.970634003E0,1.251587387E1
2.552678708E0,-1.056083862E1,-4.119433594E-1,-4.873265991E0,1.163828730E1
2.562702708E0,-1.063433578E1,-7.229965210E-1,-3.150498505E0,1.111474077E1
2.572725708E0,-1.098595459E1,-1.411115570E0,-2.175875244E0,1.128790851E1
2.582748708E0,-1.128697861E1,-1.675016785E0,-1.833537140E0,1.155696438E1
2.592771708E0,-1.070049820E1,-1.389710083E0,-1.530417480E0,1.089835462E1
2.602794708E0,-1.032388138E1,-1.221759338E0,-1.701062622E0,1.053417470E1
2.612817708E0,-9.573641510E0,-1.881736908E0,-1.994302826E0,9.958553575E0
2.622840708E0,-9.283844147E0,-2.292782135E0,-1.434766388E0,9.669806960E0
2.632863708E0,-1.001327728E1,-1.876348114E0,-4.432283020E-1,1.019719841E1
2.642886708E0,-1.094763428E1,-1.185834045E0,-5.733078003E-2,1.101182026E1
2.652909708E0,-1.126198059E1,-1.432371368E0,4.647834778E-1,1.136221450E1
2.662932708E0,-1.207269470E1,-1.169218597E0,1.063837738E0,1.217574557E1
2.672955708E0,-1.312964676E1,-4.053570557E-1,1.619332581E0,1.323533817E1
2.682978708E0,-1.294942154E1,4.417314148E-1,1.727407837E0,1.307159450E1
2.693001708E0,-1.311871948E1,8.283773804E-1,2.159708862E0,1.332108675E1
2.703024708E0,-1.359413086E1,1.065783691E0,2.957400055E0,1.395286722E1
2.713047708E0,-1.383348312E1,1.356030121E0,4.026776276E0,1.447131646E1
2.723070708E0,-1.370729553E1,1.629361725E0,4.892276459E0,1.464510633E1
2.733093708E0,-1.377420639E1,1.695823517E0,5.430706787E0,1.490292439E1
2.743116708E0,-1.367211868E1,1.750010834E0,6.181395721E0,1.510625765E1
2.753139708E0,-1.361074631E1,1.770368500E0,7.447163544E0,1.561559684E1
2.763162708E0,-1.327035416E1,1.551822968E0,8.426576843E0,1.579612773E1
2.773185708E0,-1.233435059E1,8.285270691E-1,9.623188477E0,1.566615517E1
2.783209708E0,-1.098730179E1,-9.654922485E-1,1.116977234E1,1.569766830E1
2.793232708E0,-1.072175400E1,-7.860154724E-1,1.170790329E1,1.589493091E1
2.803255708E0,-7.973918152E0,8.080197144E-1,1.254810608E1,1.488929927E1
2.813278708E0,-6.804100800E0,2.658471680E-1,1.188678131E1,1.369897924E1
2.823301708E0,-6.724316711E0,-1.044976959E0,1.077668976E1,1.274540914E1
2.833324708E0,-5.871540070E0,-1.814227295E-1,1.053000275E1,1.205773009E1
2.843347708E0,-3.985462189E0,3.722758484E-1,9.896669769E0,1.067551267E1
2.853370708E0,-3.020868073E0,-6.180647278E-1,9.317823486E0,9.814758400E0
2.863393708E0,-3.288960571E0,-1.671873322E0,1.011805939E1,1.076975152E1
2.873416708E0,-3.377725983E0,-2.639610901E0,1.148741180E1,1.226120746E1
2.883439708E0,-3.493285675E0,-2.571502533E0,1.171074738E1,1.248828548E1
2.893462708E0,-3.977229309E0,-2.126777344E0,1.144475052E1,1.230137591E1
2.903485708E0,-4.060605927E0,-1.488654327E0,1.062071411E1,1.146752722E1
2.913508708E0,-3.463796997E0,-1.298399963E0,1.002225861E1,1.068313623E1
2.923531708E0,-3.721111908E0,-1.370250549E0,9.109007721E0,9.934700904E0
2.933554708E0,-3.341950378E0,-3.776646423E-1,8.318052521E0,8.972249476E0
2.943577708E0,-1.862277374E0,-8.996292114E-2,8.354277191E0,8.559796594E0
2.953600708E0,-1.668879547E0,-4.435276794E-1,8.438102875E0,8.612981822E0
2.963623708E0,-1.491348724E0,-8.523275757E-1,7.708370361E0,7.897439898E0
2.973646708E0,-1.010548553E0,-1.163979492E0,7.070696411E0,7.236767536E0
2.983669708E0,-7.051835632E-1,-1.199306030E0,6.834936676E0,6.975097001E0
2.993692708E0,-4.984634399E-1,-9.666897583E-1,6.874454498E0,6.959962610E0
3.003715708E0,-3.749702454E-1,-1.120569763E0,7.511978760E0,7.604347715E0
3.013739333E0,-1.481469269E0,-1.513203278E0,8.800499268E0,9.051702752E0
3.023762333E0,-2.319576416E0,-1.555864563E0,8.881929932E0,9.310737275E0
3.033785333E0,-2.642904053E0,-4.174818420E-1,8.817563782E0,9.214589734E0
3.043808333E0,-2.601290588E0,4.875361633E-1,8.600964203E0,8.998943797E0
3.053831333E0,-1.987117767E0,-3.637435913E-2,7.610623627E0,7.865847195E0
3.063854333E0,-2.061063995E0,-3.218307495E-1,7.374714203E0,7.664070028E0
3.073877333E0,-2.019749908E0,-1.535806274E-1,8.243208160E0,8.488430802E0
3.083900333E0,-2.194286957E0,-3.321592712E-1,9.054221649E0,9.322239790E0
3.093923333E0,-2.691253510E0,-2.424957275E-1,9.442214813E0,9.821256040E0
3.103946333E0,-3.076552277E0,7.514373779E-2,9.445957031E0,9.934632592E0
3.113969333E0,-3.301833801E0,3.694317627E-1,8.776399384E0,9.384229985E0
3.123992333E0,-3.288212128E0,8.755293274E-1,7.906258850E0,8.607428164E0
3.134015333E0,-3.069516907E0,1.226250000E0,7.326065369E0,8.037216987E0
3.144038333E0,-2.711461487E0,1.357077942E0,7.084018707E0,7.705647603E0
3.154061333E0,-2.313588867E0,1.503623199E0,7.031178589E0,7.553214450E0
3.164084333E0,-2.165397034E0,1.732497253E0,6.971752167E0,7.503054000E0
3.174107333E0,-2.341281281E0,1.925296326E0,7.085964661E0,7.707091484E0
3.184130333E0,-2.596350861E0,1.991159363E0,7.063661041E0,7.784668311E0
3.194153333E0,-2.685116272E0,1.876048737E0,6.997049561E0,7.725808101E0
3.204176333E0,-2.927911377E0,2.000589752E0,6.998247070E0,7.845411809E0
3.214199333E0,-3.538042603E0,2.404150543E0,6.957980804E0,8.167691361E0
3.224222333E0,-3.781436462E0,2.745889893E0,6.954987030E0,8.379201490E0
3.234245333E0,-3.674708405E0,2.767744446E0,7.189998322E0,8.535805002E0
3.244268333E0,-3.431015167E0,2.764900360E0,7.473359070E0,8.675692184E0
3.254291333E0,-3.514691162E0,2.960543518E0,7.823780365E0,9.073555592E0
3.264315333E0,-3.254232788E0,3.037184143E0,7.961044922E0,9.121006239E0
3.274338333E0,-2.770289154E0,2.930605774E0,7.982001343E0,8.942890899E0
3.284361333E0,-2.440375214E0,2.988235931E0,7.887248383E0,8.780300235E0
3.294384333E0,-2.126178589E0,3.168012085E0,7.873926086E0,8.749608447E0
3.304407333E0,-2.879262543E0,2.661166077E0,8.104446716E0,9.003000292E0
3.314430333E0,-2.509531403E0,3.483855286E0,8.234226837E0,9.286414115E0
3.324453333E0,-2.710114288E0,4.165537720E0,8.417745209E0,9.775216537E0
3.334476333E0,-2.734812927E0,4.029320984E0,8.220305786E0,9.554478351E0
3.344499333E0,-2.846630402E0,4.000131683E0,8.433163147E0,9.758206741E0
3.354522333E0,-3.306773529E0,4.177961884E0,8.937763824E0,1.040546678E1
3.364545333E0,-3.711681519E0,4.215982819E0,9.233548737E0,1.080784498E1
3.374568333E0,-4.210743713E0,4.012106781E0,9.286987610E0,1.095789680E1
3.384591333E0,-4.189637604E0,4.095184021E0,9.463620300E0,1.113030568E1
3.394614333E0,-4.321812744E0,3.984863434E0,9.831854553E0,1.145524185E1
3.404637333E0,-4.491260376E0,3.960464172E0,1.022688309E1,1.185098451E1
3.414660333E0,-4.373904419E0,4.168381805E0,1.053554123E1,1.214512560E1
3.424683333E0,-4.113296356E0,4.117188263E0,1.060784088E1,1.209945182E1
3.434706333E0,-3.546724548E0,4.011807404E0,1.072519684E1,1.198764785E1
3.444729333E0,-3.043171692E0,3.856280823E0,1.043869263E1,1.153681496E1
3.454752333E0,-2.928210754E0,3.798351288E0,9.930798798E0,1.102826620E1
3.464775333E0,-2.772384796E0,4.198469238E0,9.635462952E0,1.086993136E1
3.474798333E0,-2.593955841E0,3.887416077E0,9.297765198E0,1.040620240E1
3.484821333E0,-2.774929504E0,3.772155762E0,8.889414368E0,1.004744150E1
3.494844333E0,-3.070714417E0,4.008214874E0,8.890162811E0,1.022399473E1
3.504867333E0,-3.630849609E0,3.973187714E0,8.767118683E0,1.028745155E1
3.514890333E0,-3.931274872E0,3.894301758E0,8.712781677E0,1.032148598E1
3.524914333E0,-4.042044525E0,3.764671326E0,8.851842499E0,1.043388661E1
3.534937333E0,-4.268523560E0,3.781586151E0,9.180109863E0,1.080717837E1
3.544960333E0,-4.068689117E0,3.675606537E0,9.195677490E0,1.070629717E1
3.554983333E0,-3.916755066E0,3.702400818E0,8.738677826E0,1.026709463E1
3.565006333E0,-3.789070587E0,4.055217133E0,8.294701080E0,9.980175746E0
3.575029333E0,-3.799548798E0,4.274511108E0,7.956853638E0,9.798955867E0
3.585052333E0,-3.790866852E0,4.399351501E0,7.661517792E0,9.613730805E0
3.595075333E0,-3.628753967E0,4.499493256E0,7.345524902E0,9.347193750E0
3.605098333E0,-3.392994232E0,4.423601074E0,7.160509644E0,9.074885932E0
3.615121333E0,-3.349285126E0,4.380640411E0,7.039112091E0,8.941857765E0
3.625144333E0,-3.227737885E0,4.396058350E0,7.004833374E0,8.877573512E0
3.635167333E0,-3.214714966E0,4.366419983E0,7.004234619E0,8.857726479E0
3.645190333E0,-3.223546600E0,4.354594574E0,6.975195007E0,8.832162361E0
3.655213333E0,-3.004402313E0,4.289330292E0,6.930587769E0,8.686646904E0
3.665236333E0,-2.697839813E0,4.215533752E0,6.789580994E0,8.434896238E0
3.675259333E0,-2.456691284E0,4.203259277E0,6.721023560E0,8.299089005E0
3.685282333E0,-2.473456421E0,4.317471771E0,6.686146088E0,8.334452512E0
3.695305333E0,-2.419718170E0,4.318070526E0,6.650220795E0,8.290127002E0
3.705328333E0,-2.223625946E0,4.238136749E0,6.656058655E0,8.198135902E0
3.715351333E0,-2.131866760E0,4.137246552E0,6.806346130E0,8.245484374E0
3.725374333E0,-1.964365082E0,4.099974060E0,7.080126801E0,8.414078261E0
3.735397333E0,-2.000739441E0,4.151167603E0,7.290738831E0,8.624965129E0
3.745420333E0,-1.913321228E0,4.154011688E0,7.390132141E0,8.690837951E0
3.755443333E0,-1.715283051E0,4.143084412E0,7.324718170E0,8.588296726E0
3.765466333E0,-1.709145813E0,4.292024689E0,7.237449646E0,8.586229249E0
3.775489333E0,-1.808988190E0,4.428241425E0,7.305707703E0,8.732418074E0
3.785512333E0,-1.924697571E0,4.459975433E0,7.462731171E0,8.904392070E0
3.795535333E0,-2.010020142E0,4.518354034E0,7.638465729E0,9.099552892E0
3.805559333E0,-1.994901581E0,4.516408081E0,7.710765381E0,9.156062310E0
3.815582333E0,-2.014810181E0,4.379742279E0,7.715854797E0,9.098132652E0
3.825605333E0,-2.165546722E0,4.413571930E0,7.792944489E0,9.214075840E0
3.835628333E0,-2.212698669E0,4.428840179E0,7.759414215E0,9.204301695E0
3.845651333E0,-2.263293457E0,4.328099670E0,7.662415924E0,9.086669457E0
3.855674333E0,-2.371219025E0,4.364773407E0,7.523504791E0,9.015378578E0
3.865697333E0,-2.291884003E0,4.353995819E0,7.433841248E0,8.914707374E0
3.875720333E0,-2.330952759E0,4.326752472E0,7.505691833E0,8.971596158E0
3.885743333E0,-2.399510193E0,4.348157959E0,7.620203705E0,9.095693009E0
3.895766333E0,-2.293081512E0,4.171525269E0,7.719297638E0,9.069035335E0
3.905789333E0,-2.056723022E0,3.926335144E0,7.900121613E0,9.058594745E0
3.915812333E0,-1.880090332E0,3.685485992E0,8.071365509E0,9.069977279E0
3.925835333E0,-1.850302277E0,3.371289368E0,8.374185791E0,9.214998545E0
3.935858333E0,-1.955533447E0,3.129841461E0,8.514743500E0,9.280133377E0
3.945881333E0,-2.011816406E0,2.959346008E0,8.385412445E0,9.117032188E0
3.955904333E0,-2.068997498E0,2.669398956E0,8.083190918E0,8.760389081E0
3.965927333E0,-2.218536530E0,2.305056610E0,7.644303589E0,8.286770642E0
3.975950333E0,-2.027683411E0,1.898052979E0,7.179071045E0,7.697607823E0
3.985973333E0,-1.629511414E0,1.195264435E0,7.001989288E0,7.287785570E0
3.995996333E0,-1.287322998E0,3.336561584E-1,6.884483643E0,7.011750278E0
4.006019333E0,-8.629554749E-1,-4.174818420E-1,6.638096008E0,6.706959211E0
4.016042833E0,-6.354286194E-1,-1.042731628E0,6.439608765E0,6.554358841E0
4.026065833E0,-9.966275024E-1,-1.362616425E0,6.443650360E0,6.661127522E0
4.036088833E0,-1.861678619E0,-1.491049347E0,6.709347839E0,7.120703888E0
4.046111833E0,-3.121309204E0,-1.596430206E0,7.076683960E0,7.897506975E0
4.056134833E0,-4.683460693E0,-1.642534332E0,6.950196991E0,8.540372434E0
4.066157833E0,-6.101312256E0,-1.751657410E0,6.561605072E0,9.129566038E0
4.076180833E0,-7.301815796E0,-2.234702911E0,6.243666229E0,9.863760895E0
4.086204833E0,-7.793393555E0,-2.682870941E0,6.061045990E0,1.023088745E1
4.096227833E0,-8.035589905E0,-3.164569244E0,5.598058777E0,1.029191264E1
4.106250833E0,-8.352331238E0,-3.621119843E0,4.291725311E0,1.006443501E1
4.116273833E0,-9.200018463E0,-2.937341766E0,4.393064575E0,1.060977534E1
4.126296833E0,-1.000684067E1,-2.579136658E0,4.112547913E0,1.112213363E1
4.136319833E0,-1.089569229E1,-2.642904053E0,3.288361816E0,1.168393666E1
4.146342833E0,-1.186208267E1,-2.614313507E0,3.068319397E0,1.252829695E1
4.156365833E0,-1.254331604E1,-2.200274506E0,3.564687195E0,1.322433287E1
4.166388833E0,-1.295076874E1,-2.160457306E0,4.086951141E0,1.375111473E1
4.176411833E0,-1.286888901E1,-2.544259186E0,4.129163361E0,1.375251065E1
4.186434833E0,-1.254975266E1,-2.634970551E0,3.731141052E0,1.335517784E1
4.196457833E0,-1.232821335E1,-2.504142609E0,3.332370300E0,1.301384902E1
4.206480833E0,-1.219184692E1,-2.390977936E0,2.879861298E0,1.275349003E1
4.216503833E0,-1.242401413E1,-2.481539612E0,2.312391357E0,1.287871576E1
4.226526833E0,-1.261007721E1,-2.518662415E0,1.620081024E0,1.296080129E1
4.236549833E0,-1.261531631E1,-2.436632996E0,8.569679260E-1,1.287702528E1
4.246572833E0,-1.278401550E1,-2.318678284E0,2.191442871E-1,1.299443518E1
4.256595833E0,-1.287397842E1,-2.126028900E0,3.158432007E-2,1.304838369E1
4.266618833E0,-1.256412277E1,-1.794618073E0,-1.053808594E-1,1.269208179E1
4.276641833E0,-1.235635483E1,-1.451082458E0,-5.284011841E-1,1.245248380E1
4.286664833E0,-1.243239670E1,-1.187330933E0,-7.885601807E-1,1.251383513E1
4.296687833E0,-1.252265900E1,-1.077309723E0,-7.125183105E-1,1.258909317E1
4.306710833E0,-1.264390686E1,-1.020877075E0,-4.110452271E-1,1.269171103E1
4.316733833E0,-1.285736298E1,-1.007405090E0,9.280700684E-3,1.289677223E1
4.326756833E0,-1.316572174E1,-9.291178894E-1,3.911366272E-1,1.320425980E1
4.336779833E0,-1.361957794E1,-7.147636414E-1,7.646099854E-1,1.365973714E1
4.346802833E0,-1.425335999E1,-5.041516113E-1,1.110241241E0,1.430542119E1
4.356825833E0,-1.463910782E1,-5.074447632E-2,1.480271759E0,1.471384577E1
4.366848833E0,-1.471874222E1,7.262896729E-1,1.377136230E0,1.480085718E1
4.376871833E0,-1.471170685E1,1.014440460E0,9.063652039E-1,1.477446803E1
4.386894833E0,-1.482711685E1,1.384920044E0,4.418811035E-1,1.489820984E1
4.396918833E0,-1.453088287E1,2.202819214E0,-3.963757324E-1,1.470224756E1
4.406941833E0,-1.371777374E1,2.361788635E0,-5.692662048E-1,1.393123921E1
4.416964833E0,-1.361808105E1,1.896256714E0,-6.230044556E-1,1.376357714E1
4.426987833E0,-1.422521851E1,7.460485840E-1,-1.687440948E0,1.434436778E1
4.437010833E0,-1.303713913E1,2.110610962E-2,-1.428479462E0,1.311518188E1
4.447033833E0,-1.184232376E1,-1.212478638E-2,-3.520678711E-1,1.184756223E1
4.457056833E0,-1.137918686E1,1.954934692E-1,-6.316864014E-2,1.138104132E1
4.467079833E0,-1.076516373E1,2.902464294E-1,2.878514099E-1,1.077292214E1
4.477102833E0,-1.032837204E1,-5.089416504E-3,1.524878998E0,1.044033289E1
4.487125833E0,-9.625433807E0,-6.613247681E-1,3.168012085E0,1.015493117E1
4.497148833E0,-9.038055267E0,-1.589095459E0,4.559368744E0,1.024692689E1
4.507171833E0,-8.463400269E0,-2.722837830E0,5.742957458E0,1.058416507E1
4.517194833E0,-7.568710785E0,-3.591481476E0,7.049739990E0,1.094910755E1
4.527217833E0,-7.096442871E0,-4.261188812E0,8.177644501E0,1.163576818E1
4.537240833E0,-6.966063995E0,-4.909041595E0,8.774902496E0,1.223207467E1
4.547263833E0,-6.815028076E0,-5.458399200E0,8.494086456E0,1.218147094E1
4.557286833E0,-6.712341614E0,-5.883215790E0,7.680677948E0,1.177542236E1
4.567309833E0,-6.520440674E0,-5.753136292E0,6.755751343E0,1.101158027E1
4.577332833E0,-6.863676910E0,-5.318889313E0,5.762267303E0,1.042134198E1
4.587355833E0,-7.835755463E0,-5.056484985E0,4.306544495E0,1.027197301E1
4.597378833E0,-8.660690002E0,-4.892276459E0,3.638932800E0,1.059168316E1
4.607401833E0,-9.453291779E0,-4.783303070E0,3.379222870E0,1.112042539E1
4.617424833E0,-1.000549347E1,-4.654570770E0,3.174299011E0,1.148264355E1
4.627447833E0,-1.045590683E1,-4.504283295E0,2.734363861E0,1.170859946E1
4.637470833E0,-1.075932587E1,-4.361779633E0,2.081122284E0,1.179488383E1
4.647493833E0,-1.106469086E1,-4.235592041E0,1.118025055E0,1.190031948E1
4.657516833E0,-1.088910599E1,-3.986510010E0,8.216413879E-1,1.162497251E1
4.667539833E0,-1.101843704E1,-3.653602295E0,9.151968384E-1,1.164441282E1
4.677562833E0,-1.040845551E1,-3.389252014E0,1.916913757E0,1.111294442E1
4.687585833E0,-9.882299652E0,-4.078867950E0,2.940185852E0,1.108790796E1
4.697608833E0,-9.562863922E0,-5.836512909E0,3.692371674E0,1.179605264E1
4.707632833E0,-9.612560577E0,-7.899522858E0,3.383863220E0,1.289396419E1
4.717655833E0,-9.480235748E0,-9.057365112E0,2.713108063E0,1.338923777E1
4.727678833E0,-8.939560089E0,-9.009464722E0,2.197729797E0,1.288084646E1
4.737701833E0,-7.810757446E0,-7.019502869E0,2.071991272E0,1.070394788E1
4.747724833E0,-7.697443085E0,-5.442083130E0,1.919308777E0,9.620324580E0
4.757747833E0,-8.370892639E0,-5.569917297E0,1.554068298E0,1.017403315E1
4.767770833E0,-8.607999573E0,-5.747448120E0,1.339414673E0,1.043670677E1
4.777793833E0,-8.867410126E0,-5.545368347E0,1.104852448E0,1.051678522E1
4.787816833E0,-9.425299988E0,-5.170847168E0,6.462062073E-1,1.076993606E1
4.797839833E0,-9.970915375E0,-4.690645752E0,-5.822891235E-2,1.101928771E1
4.807862833E0,-9.913285217E0,-4.036805420E0,-5.426216125E-1,1.071743719E1
4.817885833E0,-9.601782990E0,-3.480113068E0,-8.831634521E-1,1.025111707E1
4.827908833E0,-9.240584106E0,-2.977458344E0,-1.110690308E0,9.771759605E0
4.837931833E0,-8.833281097E0,-2.803669739E0,-1.040186920E0,9.325738994E0
4.847954833E0,-8.401728516E0,-2.900817719E0,-7.306306458E-1,8.918385876E0
4.857977833E0,-8.045319672E0,-2.817890167E0,-2.752775574E-1,8.528977157E0
4.868000833E0,-7.778274994E0,-2.695744171E0,1.681004333E-1,8.233884640E0
4.878023833E0,-7.424710236E0,-2.684218140E0,7.926017761E-1,7.934706465E0
4.888046833E0,-6.960226135E0,-3.053949280E0,1.736538849E0,7.796596772E0
4.898069833E0,-6.336323547E0,-3.534599762E0,2.985541534E0,7.845753618E0
4.908092833E0,-5.565726013E0,-3.787723389E0,4.137994995E0,7.902351365E0
4.918115833E0,-5.036277008E0,-3.942800903E0,4.907095642E0,8.061597404E0
4.928138833E0,-4.764292603E0,-3.964206390E0,5.510041809E0,8.293007720E0
4.938161833E0,-4.891378326E0,-3.785927124E0,5.979465637E0,8.603071279E0
4.948184833E0,-5.230123901E0,-3.386407928E0,6.045628052E0,8.681680322E0
4.958207833E0,-5.606591034E0,-3.025807800E0,5.693560181E0,8.544355060E0
4.968230833E0,-6.096671906E0,-2.658920746E0,5.037175140E0,8.343404656E0
4.978253833E0,-6.463558960E0,-2.173480225E0,4.340074768E0,8.083183761E0
4.988276833E0,-6.910828857E0,-1.747915192E0,3.682941284E0,8.023641288E0
4.998299833E0,-7.394173737E0,-9.490264893E-1,3.091670837E0,8.070494724E0
5.008322833E0,-7.906258850E0,-2.240840149E-1,2.506687317E0,8.297145531E0
5.018345458E0,-8.633596344E0,2.508782959E-1,1.789229279E0,8.820616031E0
5.028369458E0,-9.610464935E0,5.414241028E-1,1.210233307E0,9.701486535E0
5.038392458E0,-1.007764343E1,6.234535217E-1,1.098116455E0,1.015644875E1
5.048415458E0,-1.084330124E1,6.917115784E-1,1.260079651E0,1.093816472E1
5.058438458E0,-1.223810074E1,9.756710815E-1,1.875150604E0,1.241930890E1
5.068461458E0,-1.317081116E1,1.417252808E0,2.585124207E0,1.349673069E1
5.078484458E0,-1.348381027E1,2.272274780E0,3.247347107E0,1.405423905E1
5.088507458E0,-1.374322083E1,2.829865265E0,3.621119843E0,1.449126513E1
5.098530458E0,-1.344998062E1,3.114573212E0,3.790417786E0,1.431676681E1
5.108553458E0,-1.303459442E1,3.099005585E0,4.053420868E0,1.399766795E1
5.118576458E0,-1.264899628E1,2.902763672E0,4.394561462E0,1.370165370E1
5.128599458E0,-1.234737350E1,2.701132965E0,4.879403229E0,1.354851754E1
5.138622458E0,-1.235530701E1,2.396815796E0,5.162314911E0,1.360322875E1
5.148645458E0,-1.259570709E1,1.999092865E0,5.429060211E0,1.386084067E1
5.158668458E0,-1.247371078E1,1.954335938E0,5.841003571E0,1.391151366E1
5.168691458E0,-1.189980423E1,1.971849518E0,6.359225922E0,1.363573561E1
5.178714458E0,-1.123309067E1,2.021546173E0,6.883884888E0,1.332879762E1
5.188737458E0,-9.910441132E0,1.887275391E0,7.057074738E0,1.231182179E1
5.198760458E0,-9.121731262E0,1.800306244E0,7.238347778E0,1.178307101E1
5.208783458E0,-8.986712036E0,1.611099701E0,8.039781189E0,1.216530793E1
5.218806458E0,-8.376281433E0,1.193468170E0,8.335266724E0,1.187699997E1
5.228829458E0,-7.669750671E0,8.809181213E-1,8.179590454E0,1.124752382E1
5.238852458E0,-6.870412903E0,5.490582275E-1,9.164242859E0,1.146679491E1
5.248875458E0,-5.482199707E0,-1.706451416E-2,1.003917343E1,1.143852298E1
5.258898458E0,-4.402195587E0,-7.014413452E-1,1.043031006E1,1.134295878E1
5.268921458E0,-3.566184082E0,-1.321901093E0,1.104343506E1,1.168000639E1
5.278944458E0,-3.213068390E0,-1.493144989E0,1.187675217E1,1.239397162E1
5.288967458E0,-2.941533051E0,-1.736239471E0,1.208541824E1,1.255884064E1
5.298990458E0,-2.848127289E0,-2.245330811E0,1.217133957E1,1.270019080E1
5.309013458E0,-3.711082764E0,-2.345771942E0,1.185789139E1,1.264453912E1
5.319036458E0,-4.214336243E0,-2.088457031E0,1.047027695E1,1.147819594E1
5.329059458E0,-3.924987946E0,-1.935774536E0,9.270671539E0,1.025173664E1
5.339082458E0,-3.785777435E0,-1.748963013E0,8.706045685E0,9.653300673E0
5.349105458E0,-3.500919800E0,-1.476978607E0,8.250991974E0,9.083874383E0
5.359128458E0,-2.821033630E0,-1.737436981E0,8.115523682E0,8.765765376E0
5.369151458E0,-3.057092743E0,-1.805994415E0,8.333171082E0,9.058099809E0
5.379175458E0,-3.442391510E0,-1.409319305E0,8.959618378E0,9.701082501E0
5.389198458E0,-3.447480927E0,-1.307381287E0,9.053772583E0,9.775743887E0
5.399221458E0,-3.757935333E0,-1.677561493E0,8.917705536E0,9.821494925E0
5.409244458E0,-3.877835999E0,-1.398541718E0,8.246052246E0,9.219051394E0
5.419267458E0,-4.086352386E0,-7.447013855E-1,7.931256866E0,8.953082791E0
5.429290458E0,-4.464615784E0,-2.227368164E-1,8.078400879E0,9.232711766E0
5.439313458E0,-4.409530334E0,-2.020797729E-2,7.474257202E0,8.678069305E0
5.449336458E0,-4.254303131E0,1.408570862E-1,6.964567108E0,8.162360618E0
5.459359458E0,-4.126768341E0,3.725752258E-1,6.471492462E0,7.684350586E0
5.469382458E0,-3.848347321E0,6.448590088E-1,6.280938721E0,7.394309397E0
5.479405458E0,-3.651207275E0,1.012195129E0,6.278693390E0,7.333337864E0
5.489428458E0,-3.805087280E0,1.374292145E0,6.340365143E0,7.521143414E0
5.499451458E0,-3.940405884E0,1.755998383E0,6.166426849E0,7.525632793E0
5.509474458E0,-3.948938141E0,2.166444855E0,5.964646454E0,7.474262711E0
5.519497458E0,-3.797602844E0,2.446362762E0,6.098617859E0,7.589441212E0
5.529520458E0,-4.018094330E0,2.226769409E0,6.123166809E0,7.654851783E0
5.539543458E0,-3.901935883E0,2.105371857E0,5.850883026E0,7.341016719E0
5.549566458E0,-3.369493103E0,2.949466553E0,5.944887543E0,7.442749802E0
5.559589458E0,-2.637365570E0,3.008593597E0,6.084547119E0,7.282104519E0
5.569612458E0,-3.128045197E0,3.484454041E0,5.855223999E0,7.497315172E0
5.579635458E0,-3.003055115E0,4.367467804E0,5.893394623E0,7.926235880E0
5.589658458E0,-2.257305908E0,4.818479919E0,6.466253357E0,8.374103604E0
5.599681458E0,-2.329006805E0,4.899910583E0,6.513554993E0,8.477015694E0
5.609704458E0,-2.217039642E0,4.661306763E0,6.489305420E0,8.291811041E0
5.619727458E0,-2.286345520E0,4.064797211E0,6.494544525E0,7.995565070E0
5.629750458E0,-2.422711945E0,3.578608246E0,6.776258698E0,8.037017611E0
5.639773458E0,-1.878892822E0,3.835324402E0,7.356302490E0,8.506182330E0
5.649796458E0,-1.519639893E0,3.900289307E0,7.839797058E0,8.887293176E0
5.659819458E0,-1.424437866E0,3.450325012E0,8.059839478E0,8.882273264E0
5.669842458E0,-1.423390045E0,3.072660370E0,8.187823334E0,8.860458900E0
5.679865458E0,-1.555415497E0,3.025658112E0,8.344996490E0,9.011819506E0
5.689888458E0,-1.720821533E0,3.084186401E0,8.391998749E0,9.104892943E0
5.699911458E0,-1.912273407E0,2.960393829E0,8.219856720E0,8.943532060E0
5.709934458E0,-2.240989838E0,2.822829895E0,7.905061340E0,8.687945607E0
5.719957458E0,-2.477348328E0,2.740650787E0,7.805218964E0,8.635384447E0
5.729980458E0,-2.813848572E0,2.393971710E0,7.758965149E0,8.593624644E0
5.740003458E0,-3.096460876E0,1.700314178E0,7.663014679E0,8.438064484E0
5.750026458E0,-2.934198303E0,1.072968750E0,7.839797058E0,8.439383836E0
5.760050458E0,-2.239193573E0,4.926255798E-1,8.333320770E0,8.642968407E0
5.770073458E0,-1.498982849E0,-1.495390320E-1,8.386160889E0,8.520387665E0
5.780096458E0,-9.210346985E-1,-1.002764740E0,7.955805817E0,8.071473734E0
5.790119458E0,-7.385641479E-1,-1.974992981E0,7.289541321E0,7.588378413E0
5.800142458E0,-9.131011963E-1,-2.829565887E0,6.381230164E0,7.039907337E0
5.810165458E0,-1.086291046E0,-3.498674469E0,5.516478424E0,6.622105819E0
5.820188458E0,-1.566642151E0,-3.995641022E0,4.992268524E0,6.583483867E0
5.830211458E0,-2.340383148E0,-4.468657379E0,4.696483612E0,6.892260179E0
5.840234458E0,-3.070415039E0,-5.041216736E0,4.410278778E0,7.368301948E0
5.850257458E0,-3.772006073E0,-5.713169403E0,4.032464447E0,7.945382556E0
5.860280458E0,-4.815336456E0,-6.064638519E0,3.868106232E0,8.656185729E0
5.870303458E0,-6.412664795E0,-6.027066650E0,3.708687744E0,9.549982564E0
5.880326458E0,-8.294551392E0,-6.169121246E0,3.621868286E0,1.095333600E1
5.890349458E0,-1.040950333E1,-6.281836853E0,3.441493378E0,1.263578689E1
5.900372458E0,-1.256681717E1,-6.013744354E0,2.958747253E0,1.424233830E1
5.910395458E0,-1.409154648E1,-5.830076294E0,2.759212189E0,1.549757154E1
5.920418458E0,-1.533890259E1,-6.013444977E0,2.751278687E0,1.670368185E1
5.930441458E0,-1.586251373E1,-5.892496490E0,2.807711334E0,1.715296184E1
5.940464458E0,-1.538156387E1,-5.752088470E0,3.114722900E0,1.671468001E1
5.950487458E0,-1.408900177E1,-5.816753998E0,2.720442810E0,1.548339133E1
5.960510458E0,-1.495989075E1,-5.978866882E0,2.225122833E0,1.626334381E1
5.970533458E0,-1.536090683E1,-5.612877960E0,2.070195007E0,1.648476767E1
5.980556458E0,-1.496797394E1,-5.365442505E0,1.085841980E0,1.593760553E1
5.990579458E0,-1.551448746E1,-5.384153595E0,1.291813660E-1,1.642270133E1
6.000602458E0,-1.557615921E1,-5.341043243E0,-4.140390015E-1,1.647163947E1
6.010625458E0,-1.542931458E1,-5.062472534E0,-9.708810425E-1,1.626760543E1
6.020649125E0,-1.547332306E1,-4.568200378E0,-1.564995575E0,1.620929956E1
6.030672125E0,-1.561956894E1,-4.223616943E0,-2.069596252E0,1.631236042E1
6.040695125E0,-1.536809189E1,-3.734883270E0,-2.387235718E0,1.599457707E1
6.050718125E0,-1.507694733E1,-3.025209045E0,-2.427801361E0,1.556793017E1
6.060741125E0,-1.514715134E1,-2.505340118E0,-2.051334229E0,1.548938007E1
6.070764125E0,-1.556598038E1,-2.137554932E0,-2.016756134E0,1.584096561E1
6.080787125E0,-1.660901138E1,-9.300160217E-1,-3.445085907E0,1.698801948E1
6.090810125E0,-1.678190186E1,1.309776306E-1,-2.786156158E0,1.701211484E1
6.100833125E0,-1.596804428E1,9.370513916E-2,-1.290616150E0,1.602039041E1
6.110856125E0,-1.507081009E1,1.167572021E-2,1.692979431E0,1.516560689E1
6.120879125E0,-1.594514191E1,8.065228271E-1,3.782633972E-1,1.597000666E1
6.130902125E0,-1.467503311E1,1.117276611E0,1.308279419E-1,1.471808479E1
6.140925125E0,-1.352557343E1,9.532177734E-1,2.993774414E-4,1.355912094E1
6.150948125E0,-1.270168671E1,6.382727051E-1,4.113446045E-1,1.272436409E1
6.160971125E0,-1.200308945E1,5.242098999E-1,1.144819336E0,1.206895039E1
6.170994125E0,-1.118923187E1,3.094065857E-1,1.351539459E0,1.127480826E1
6.181017125E0,-9.925260315E0,1.025367737E-1,7.705975342E-1,9.955658023E0
6.191041125E0,-8.812923431E0,2.080673218E-1,9.430389404E-2,8.815883656E0
6.201064125E0,-9.115743713E0,4.201762390E-1,-2.462379456E-1,9.128743870E0
6.211087125E0,-9.053323517E0,8.951385498E-1,-1.242566071E0,9.181933901E0
6.221110125E0,-8.354875946E0,2.022444305E0,-3.922892303E0,9.448984975E0
6.231133125E0,-6.842421112E0,2.487976227E0,-7.145391083E0,1.020124336E1
6.241156125E0,-5.322781219E0,1.631008301E0,-7.434290314E0,9.287672499E0
6.251179125E0,-2.171234894E0,-1.091081085E0,-4.127516785E0,4.789688268E0
6.261202125E0,-4.075574799E0,-4.559069366E0,-2.209704895E0,6.502170342E0
6.271225125E0,-4.058210907E0,-6.037095795E0,-6.851252747E-1,7.306503818E0
6.281248125E0,-4.518952789E0,-6.056405640E0,-2.624043274E-1,7.561073972E0
6.291271125E0,-4.699178009E0,-5.846542053E0,-8.208929443E-1,7.545740068E0
6.301294125E0,-4.678820343E0,-5.272186432E0,-1.648222504E0,7.239057052E0
6.311317125E0,-5.975873108E0,-4.664599915E0,-2.323917389E0,7.929069542E0
6.321340125E0,-6.890620880E0,-4.020489349E0,-2.632425842E0,8.400872368E0
6.331363125E0,-8.198600922E0,-3.135230255E0,-2.680775299E0,9.177869144E0
6.341386125E0,-9.851763153E0,-2.609673157E0,-2.577340393E0,1.051238863E1
6.351409125E0,-1.092218719E1,-2.643353119E0,-2.392474823E0,1.148936137E1
6.361432125E0,-1.167542084E1,-3.389850769E0,-2.184407501E0,1.235225389E1
6.371455125E0,-1.182136734E1,-2.827619934E0,-2.424508209E0,1.239428902E1
6.381478125E0,-1.060320053E1,1.854643250E-1,-2.791245575E0,1.096600704E1
6.391501125E0,-1.007884094E1,1.295406189E0,-2.149679718E0,1.038663732E1
6.401524125E0,-1.229079117E1,3.713777161E-1,-2.440075836E0,1.253616524E1
6.411547125E0,-1.598316284E1,-1.437909851E0,-1.324894867E0,1.610231119E1
6.421570125E0,-1.981773880E1,-4.036506042E0,-9.865983582E-1,2.024869202E1
6.431593125E0,-1.517948410E1,-1.440155182E0,1.556313629E0,1.532686845E1
6.441616125E0,-1.272668472E1,-6.643185425E-1,1.777852936E0,1.286742337E1
6.451639125E0,-1.442161011E1,-2.242337036E-1,1.650318146E0,1.451746083E1
6.461662125E0,-1.355581055E1,6.277944946E-1,-8.472381592E-2,1.357060439E1
6.471685125E0,-1.141271713E1,-9.128018188E-1,1.963916016E-1,1.145084666E1
6.481708125E0,-1.209679459E1,-1.919308777E0,4.294569397E-1,1.225563620E1
6.491731125E0,-1.265827698E1,-2.152074738E0,-7.720944214E-1,1.286310738E1
6.501754125E0,-1.218121902E1,-1.850901031E0,-1.075363770E0,1.236787527E1
6.511777125E0,-1.193228668E1,-2.772833862E0,-8.285270691E-1,1.227821364E1
6.521800125E0,-1.093431198E1,-3.381468201E0,-1.466350708E0,1.153879067E1
6.531823125E0,-9.718689880E0,-3.885619812E0,1.068328400E0,1.052104082E1
6.541846125E0,-9.306297455E0,-4.993316345E0,1.444496155E-1,1.056225573E1
6.551869125E0,-8.732989655E0,-6.140081635E0,3.766168213E-1,1.068211360E1
6.561892125E0,-7.256460114E0,-5.697003021E0,1.599124603E0,9.363186226E0
6.571915125E0,-6.558162231E0,-5.329367523E0,2.171683960E0,8.725128152E0
6.581938125E0,-5.379363556E0,-6.575825500E0,3.041375427E0,9.023801736E0
6.591961125E0,-5.276228027E0,-8.190667419E0,5.841901703E0,1.136016859E1
6.601985125E0,-5.280868378E0,-8.483907623E0,5.667364655E0,1.148839769E1
6.612008125E0,-4.881199493E0,-8.391399994E0,2.962190094E0,1.014969322E1
6.622031125E0,-5.150639191E0,-6.526128845E0,2.836301880E0,8.784307038E0
6.632054125E0,-6.381529541E0,-5.324128418E0,5.165757751E-1,8.326890970E0
6.642077125E0,-7.510332184E0,-5.581443329E0,-1.965861969E0,9.561496349E0
6.652100125E0,-8.217312012E0,-4.931345215E0,-2.317480774E0,9.859670353E0
6.662123125E0,-8.478369141E0,-4.503834229E0,-2.591411133E0,9.943976956E0
6.672146125E0,-7.929310913E0,-5.005441132E0,-2.333946533E0,9.663111243E0
6.682169125E0,-6.835685120E0,-5.608986053E0,-2.279908905E0,9.131555192E0
6.692192125E0,-5.631139984E0,-6.172264709E0,-1.115330658E0,8.429148927E0
6.702215125E0,-4.747377777E0,-6.470893707E0,2.838098145E-1,8.030604531E0
6.712238125E0,-3.558549957E0,-5.942043457E0,1.329086151E0,7.052490925E0
6.722261125E0,-4.176165619E0,-5.247338104E0,1.695224762E0,6.917275725E0
6.732284125E0,-5.432503052E0,-5.313051453E0,2.060016174E0,7.873009068E0
6.742307125E0,-6.833888855E0,-4.520150299E0,9.577084351E-1,8.249303065E0
6.752330125E0,-7.977211304E0,-3.666774902E0,5.703140259E-2,8.779771691E0
6.762353125E0,-9.770631866E0,-2.431992645E0,3.502716064E-2,1.006881633E1
6.772376125E0,-1.115794693E1,-1.782193909E0,-3.751199341E-1,1.130560524E1
6.782399125E0,-1.183229462E1,-1.779948578E0,2.773731995E-1,1.196864022E1
6.792422125E0,-1.419842422E1,-1.192270660E0,1.194066925E0,1.429834101E1
6.802445125E0,-1.476469666E1,-9.815089417E-1,1.049916687E0,1.483448523E1
6.812468125E0,-1.423225388E1,-1.022673340E0,1.275347900E-1,1.426951913E1
6.822491125E0,-1.449630478E1,-1.187330933E0,7.319778442E-2,1.454503231E1
6.832514125E0,-1.366044296E1,-1.030756531E0,4.969665527E-2,1.369936607E1
6.842537125E0,-1.232851273E1,-8.238867188E-1,-3.327580261E-1,1.236049122E1
6.852560125E0,-1.104777603E1,-1.220412140E0,-2.905458069E-1,1.111877592E1
6.862583125E0,-9.568851471E0,-1.789378967E0,-6.107299805E-1,9.753860091E0
6.872606125E0,-9.699380035E0,-2.404599609E0,-1.278191986E0,1.007441547E1
6.882629125E0,-1.020637573E1,-2.766696625E0,-1.320404205E0,1.065683739E1
6.892652125E0,-1.045979874E1,-2.780917053E0,-8.467890930E-1,1.085623973E1
6.902675125E0,-1.046773224E1,-2.572101288E0,-7.631130981E-1,1.080608462E1
6.912698125E0,-1.015862503E1,-2.404449921E0,-1.516197052E0,1.054883384E1
6.922721125E0,-9.659413147E0,-2.988834686E0,-2.847378845E0,1.050452100E1
6.932744125E0,-8.445437622E0,-4.760400696E0,-4.276756439E0,1.059610669E1
6.942767125E0,-7.877967682E0,-7.400310974E0,-4.842729492E0,1.184394386E1
6.952790125E0,-6.562353516E0,-9.154962158E0,-4.837490387E0,1.225883881E1
6.962813125E0,-5.693859558E0,-9.707612915E0,-3.324137421E0,1.173489134E1
6.972836125E0,-6.025569763E0,-8.557105408E0,-7.646099854E-1,1.049362532E1
6.982859125E0,-5.950426025E0,-6.659800873E0,4.646337891E-1,8.942952650E0
6.992882125E0,-5.366190948E0,-5.314398651E0,4.460723877E-1,7.565567982E0
7.002905125E0,-5.818999329E0,-4.706512756E0,-2.251318359E-1,7.487502912E0
7.012929125E0,-6.163283386E0,-4.754562836E0,-5.712121582E-1,7.805012056E0
7.022951333E0,-5.836512909E0,-5.492528229E0,-9.879455566E-2,8.015142522E0
7.032974333E0,-5.708529053E0,-6.248306580E0,1.565744019E-1,8.464818640E0
7.042997333E0,-5.393434296E0,-7.051835632E0,7.993377686E-2,8.878282981E0
7.053020333E0,-5.127886505E0,-8.188571777E0,5.089416504E-3,9.661674475E0
7.063043333E0,-5.921536102E0,-8.913514252E0,1.351689148E-1,1.070203704E1
7.073066333E0,-6.510112152E0,-9.439370728E0,4.605921936E-1,1.147586272E1
7.083089333E0,-6.795718231E0,-9.258846130E0,1.110989685E0,1.153873113E1
7.093112333E0,-6.993606720E0,-8.532257080E0,1.922601929E0,1.119849740E1
7.103135333E0,-7.240742798E0,-8.175848236E0,1.677411804E0,1.104927875E1
7.113158333E0,-7.310497742E0,-8.367449799E0,8.337661743E-1,1.114238571E1
7.123181333E0,-6.960974579E0,-8.089926910E0,-4.477189636E-1,1.068187890E1
7.133204333E0,-6.985074463E0,-6.614295502E0,-1.371597748E0,9.717070063E0
7.143227333E0,-7.396269379E0,-6.954687653E0,-2.098635864E0,1.036709957E1
7.153250333E0,-7.789351959E0,-7.959697723E0,-2.986888733E0,1.153049418E1
7.163273333E0,-8.128396912E0,-9.020691376E0,-3.157084808E0,1.254634982E1
7.173296333E0,-8.154442749E0,-9.771230621E0,-2.380649414E0,1.294756255E1
7.183319333E0,-7.583380280E0,-9.790390778E0,-8.294252014E-1,1.241158145E1
7.193342333E0,-6.612050171E0,-9.854307861E0,-1.181044006E-1,1.186762569E1
7.203365333E0,-5.637726288E0,-1.020218445E1,1.167572021E-2,1.165627134E1
7.213388333E0,-4.933740234E0,-1.064616119E1,-1.243314514E0,1.179950727E1
7.223411333E0,-4.533921661E0,-1.155776550E1,-2.559228058E0,1.267627853E1
7.233434333E0,-4.069287872E0,-1.332439178E1,-2.769391022E0,1.420450798E1
7.243457333E0,-3.335663452E0,-1.501617371E1,-2.937790833E0,1.566022792E1
7.253480333E0,-1.279838562E0,-1.435559738E1,-3.698957977E0,1.487963215E1
7.263503333E0,-2.811154175E-1,-1.072145462E1,-3.110531616E0,1.116709550E1
7.273526333E0,-2.874173126E0,-7.188501434E0,-1.039438477E0,7.811264710E0
7.283549333E0,-4.573738861E0,-6.053112488E0,-1.506616974E0,7.734930683E0
7.293572333E0,-5.141508179E0,-6.372997284E0,-3.211571503E0,8.795703056E0
7.303595333E0,-5.825435944E0,-6.439908142E0,-3.717220001E0,9.445943328E0
7.313618333E0,-5.971681824E0,-5.999374237E0,-3.179837494E0,9.042391361E0
7.323641333E0,-5.768254852E0,-6.000871124E0,-2.645448761E0,8.733934820E0
7.333664333E0,-5.567821655E0,-6.401138763E0,-2.347867584E0,8.802709676E0
7.343687333E0,-5.830076294E0,-7.150330811E0,-2.519859924E0,9.563823207E0
7.353710333E0,-5.801635437E0,-7.579338684E0,-2.628683624E0,9.900268998E0
7.363733333E0,-5.056185608E0,-7.320526886E0,-2.407294006E0,9.216842801E0
7.373756333E0,-4.072581024E0,-6.762187958E0,-2.171833649E0,8.187182884E0
7.383779333E0,-3.508853302E0,-6.437513123E0,-2.033221893E0,7.608391286E0
7.393802333E0,-3.259771271E0,-6.321354675E0,-2.046993256E0,7.401068508E0
7.403825333E0,-3.265609131E0,-6.384822693E0,-2.272723846E0,7.522993918E0
7.413848333E0,-3.564238129E0,-6.224356384E0,-2.212848358E0,7.506204347E0
7.423871333E0,-3.791914673E0,-6.111042023E0,-2.245330811E0,7.534252580E0
7.433894333E0,-3.832630005E0,-5.795348511E0,-1.901645508E0,7.203566669E0
7.443917333E0,-3.905827789E0,-5.450016632E0,-1.650018768E0,6.905123746E0
7.453940333E0,-4.020040283E0,-5.304818573E0,-1.647024994E0,6.856713156E0
7.463964333E0,-4.047583008E0,-5.241500244E0,-1.845212860E0,6.874668248E0
7.473987333E0,-4.313130798E0,-5.276527405E0,-2.228715363E0,7.170216936E0
7.484010333E0,-4.513264618E0,-5.588778076E0,-2.673889618E0,7.665095145E0
7.494033333E0,-4.483775940E0,-5.901028748E0,-3.243006134E0,8.089714194E0
7.504056333E0,-3.993395691E0,-6.045328674E0,-3.631598053E0,8.104425479E0
7.514079333E0,-3.759432220E0,-5.964347076E0,-4.099225616E0,8.155391917E0
7.524102333E0,-3.845503235E0,-6.112838287E0,-4.679568787E0,8.605408246E0
7.534125333E0,-4.086202698E0,-6.448889465E0,-5.256768494E0,9.269241761E0
7.544148333E0,-4.605023804E0,-7.044949951E0,-5.431754608E0,1.001706155E1
7.554171333E0,-4.908592529E0,-7.576045532E0,-5.477110291E0,1.055885807E1
7.564194333E0,-4.983436890E0,-7.640411682E0,-5.340893555E0,1.057050982E1
7.574217333E0,-5.160668335E0,-7.099137268E0,-5.171296234E0,1.018688139E1
7.584240333E0,-5.475014648E0,-6.359076233E0,-5.556445312E0,1.006418007E1
7.594263333E0,-6.141578522E0,-5.763614502E0,-6.241420898E0,1.048301358E1
7.604286333E0,-7.152276764E0,-5.719156952E0,-6.716083832E0,1.135647838E1
7.614309333E0,-7.778424683E0,-5.933361511E0,-6.757697296E0,1.189012793E1
7.624332333E0,-8.526718597E0,-6.170618134E0,-6.715036011E0,1.248491757E1
7.634355333E0,-9.040899353E0,-6.440656586E0,-6.360273743E0,1.279347492E1
7.644378333E0,-8.930878143E0,-6.242768097E0,-5.177583160E0,1.206400039E1
7.654401333E0,-9.045839081E0,-5.957910461E0,-3.871249695E0,1.150262909E1
7.664424333E0,-9.097930756E0,-6.195765839E0,-3.090173950E0,1.143280514E1
7.674447333E0,-8.257578278E0,-6.902146912E0,-4.192631378E0,1.155012506E1
7.684470333E0,-8.226443024E0,-7.692203979E0,-6.060147858E0,1.278943935E1
7.694493333E0,-8.847202148E0,-7.671397247E0,-7.308701477E0,1.380363861E1
7.704516333E0,-8.236771545E0,-7.660469971E0,-6.046825562E0,1.277072062E1
7.714539333E0,-5.362448730E0,-5.486091614E0,-3.780987396E0,8.552714380E0
7.724562333E0,-3.550167389E0,-4.344565430E0,-9.874964905E-1,5.696848829E0
7.734585333E0,-4.161346436E0,-6.646628265E0,1.169667664E0,7.928593438E0
7.744608333E0,-2.971321106E0,-7.241790619E0,-1.196461945E0,7.918573209E0
7.754631333E0,-2.015259247E0,-8.550519104E0,-6.823710022E0,1.112365341E1
7.764654333E0,-4.378095703E0,-8.554261322E0,-8.667425995E0,1.294091891E1
7.774677333E0,-6.731801147E0,-5.964496765E0,-2.633174286E0,9.371551375E0
7.784700333E0,-6.615193634E0,-5.844147034E0,3.290457458E0,9.420294669E0
7.794723333E0,-5.527854767E0,-8.240962830E0,5.596561890E0,1.139263585E1
7.804746333E0,-5.143005066E0,-8.625213776E0,5.833668823E0,1.161363448E1
7.814769333E0,-5.053790588E0,-8.670270081E0,5.426066437E0,1.140861865E1
7.824792333E0,-4.836442566E0,-7.730075226E0,3.886667633E0,9.912185681E0
7.834815333E0,-5.076842651E0,-7.234006805E0,1.500330048E0,8.964160642E0
7.844838333E0,-4.739893341E0,-7.622748413E0,-1.353635101E0,9.077731558E0
7.854861333E0,-4.223467255E0,-8.040080566E0,-3.312910767E0,9.667261707E0
7.864884333E0,-3.862567749E0,-8.592581635E0,-3.214714966E0,9.954209214E0
7.874907333E0,-4.080215149E0,-8.939859467E0,-2.296674042E0,1.009177658E1
7.884930333E0,-4.692741394E0,-9.571096802E0,-1.122964783E0,1.071861771E1
7.894953333E0,-4.507127380E0,-9.527836761E0,-4.318519592E-1,1.054895098E1
7.904977333E0,-4.656067657E0,-9.494605865E0,6.605763245E-1,1.059541729E1
7.915000333E0,-5.222639465E0,-8.987310791E0,1.819765778E0,1.055268998E1
7.925023333E0,-4.877008209E0,-7.672145691E0,1.760189667E0,9.259875606E0
7.935046333E0,-5.189109192E0,-6.866221619E0,1.288819885E0,8.702465755E0
7.945069333E0,-5.156327362E0,-6.274502106E0,6.731501770E-1,8.149246573E0
7.955092333E0,-4.331093445E0,-5.209317169E0,1.245410156E-1,6.775755771E0
7.965115333E0,-3.663182373E0,-5.496270447E0,1.104702759E-1,6.606065213E0
7.975138333E0,-4.039948883E0,-6.860234070E0,7.637118530E-1,7.997953130E0
7.985161333E0,-5.530249786E0,-8.209827576E0,1.335223389E0,9.988380901E0
7.995184333E0,-5.208568726E0,-8.249644775E0,8.170010376E-1,9.790470764E0
8.005207333E0,-4.833149414E0,-9.283395081E0,-6.152206421E-2,1.046635287E1
8.015230583E0,-5.118605804E0,-9.410031738E0,-1.389261017E0,1.080179933E1
8.025253583E0,-5.246290283E0,-8.748706970E0,-1.632954254E0,1.033102004E1
8.035276583E0,-6.451434174E0,-8.882378998E0,-1.328038330E0,1.105808959E1
8.045299583E0,-6.206842804E0,-8.484805756E0,-1.336121521E0,1.059726602E1
8.055322583E0,-5.807473297E0,-7.795638885E0,-8.348139954E-1,9.756825618E0
8.065345583E0,-5.138664093E0,-7.118147736E0,-3.906875610E-1,8.787862801E0
8.075368583E0,-5.965245209E0,-7.727829895E0,1.141376495E0,9.828847623E0
8.085391583E0,-5.027894440E0,-6.877897339E0,2.567011871E0,8.898019119E0
8.095414583E0,-3.989354095E0,-6.523284760E0,3.376229095E0,8.358654979E0
8.105437583E0,-3.227438507E0,-6.707252197E0,3.420986023E0,8.191870160E0
8.115460583E0,-2.229613495E0,-6.749314728E0,2.901715851E0,7.677524374E0
8.125483583E0,-1.530716858E0,-7.107519836E0,2.298769684E0,7.625239300E0
8.135506583E0,-4.167333984E-1,-7.208410034E0,1.369202728E0,7.349119543E0
8.145529583E0,2.450404358E-1,-7.526348877E0,4.978646851E-1,7.546776893E0
8.155552583E0,1.945953369E-2,-7.654931488E0,8.786727905E-2,7.655460497E0
8.165575583E0,-2.785707092E-1,-7.945177917E0,2.305206299E-1,7.953401382E0
8.175598583E0,-4.757107544E-1,-8.627159729E0,7.027885437E-1,8.668800231E0
8.185621583E0,-1.330283661E0,-9.383387146E0,1.160237274E0,9.547971485E0
8.195644583E0,-7.102729797E-1,-9.698332214E0,1.373992767E0,9.820895660E0
8.205667583E0,1.114881592E0,-8.122259674E0,5.818400574E-1,8.219038936E0
8.215690583E0,9.211843872E-1,-9.624835052E0,6.210585022E-1,9.688743165E0
8.225713583E0,1.285826111E-1,-9.505982208E0,5.885760498E-1,9.525053963E0
8.235736583E0,1.332229614E-1,-1.018302429E1,2.433938599E-1,1.018680385E1
8.245759583E0,-1.307081909E0,-1.239976456E1,-3.013233948E-1,1.247210568E1
8.255782583E0,-3.216511230E0,-1.304028259E1,6.771917725E-1,1.344817844E1
8.265805583E0,-4.259392548E0,-1.416519333E1,1.461410980E0,1.486374276E1
8.275828583E0,-4.492757263E0,-1.660482010E1,1.542093201E0,1.727087056E1
8.285851583E0,-4.078718262E0,-1.864926865E1,1.819017334E0,1.917654786E1
8.295874583E0,-2.405497742E0,-2.073637848E1,1.352587280E0,2.091920898E1
8.305897583E0,-1.651665344E0,-2.094863708E1,2.225871277E-1,2.101482665E1
8.315920583E0,-2.050136719E0,-1.865660339E1,-2.386187897E0,1.891998423E1
8.325943583E0,-1.656904449E0,-1.609992004E1,-4.607718201E0,1.682806658E1
8.335966583E0,-8.454418945E-1,-1.370534958E1,-4.878804474E0,1.457237497E1
8.345989583E0,-7.723937988E-2,-1.259855118E1,-3.517834625E0,1.308069639E1
8.356012583E0,1.226549377E0,-1.293879364E1,-1.243164825E0,1.305611975E1
8.366036583E0,4.700974274E0,-1.266725830E1,-7.701484680E-1,1.353335585E1
8.376059583E0,7.191794586E0,-1.236264175E1,-1.804796906E0,1.441575917E1
8.386082583E0,9.540410614E0,-1.179711777E1,-3.431164856E0,1.555520217E1
8.396105583E0,1.282068924E1,-9.478888550E0,-4.440964966E0,1.655118034E1
8.406128583E0,1.118459152E1,-8.410560150E0,-2.752625885E0,1.426217230E1
8.416151583E0,7.381300507E0,-9.294621735E0,4.146377563E-1,1.187625845E1
8.426174583E0,6.082900543E0,-1.086500610E1,2.922372894E0,1.279024237E1
8.436197583E0,6.733298035E0,-1.180849411E1,3.564387817E0,1.405285366E1
8.446220583E0,6.663692780E0,-1.169323380E1,3.549418945E0,1.391886823E1
8.456243583E0,6.004763031E0,-1.149848877E1,3.113675079E0,1.334044210E1
8.466266583E0,5.383255463E0,-1.113235016E1,1.954934692E0,1.251920241E1
8.476289583E0,5.306165771E0,-1.037956558E1,7.351213074E-1,1.168037586E1
8.486312583E0,5.386548615E0,-9.731563110E0,-2.571652222E-1,1.112584201E1
8.496335583E0,5.075196075E0,-9.098529510E0,-9.925859070E-1,1.046547090E1
8.506358583E0,4.966072998E0,-8.621770935E0,-7.436535645E-1,9.977466397E0
8.516381583E0,4.995262299E0,-8.527916107E0,-4.176315308E-2,9.883306265E0
8.526404583E0,4.724475403E0,-8.698261871E0,2.568658447E-1,9.901838591E0
8.536427583E0,4.397704926E0,-8.759035492E0,4.502636719E-1,9.811383630E0
8.546450583E0,4.354594574E0,-8.730295258E0,7.119195557E-1,9.781992570E0
8.556473583E0,4.373605042E0,-8.637787628E0,7.946974182E-1,9.714491245E0
8.566496583E0,3.251987457E0,-8.720864868E0,1.239272919E0,9.389606160E0
8.576519583E0,2.065704346E0,-8.457412720E0,1.539398804E0,8.841080988E0
8.586542583E0,1.865121460E0,-8.137677612E0,1.273851013E0,8.445304695E0
8.596565583E0,2.158810730E0,-7.589068451E0,8.515791321E-1,7.935969427E0
8.606588583E0,2.530487823E0,-6.901248779E0,4.408332825E-1,7.363758369E0
8.616611583E0,2.701731720E0,-6.575226746E0,2.945874023E-1,7.114755286E0
8.626634583E0,2.683619385E0,-6.629264374E0,4.655319214E-1,7.166985357E0
8.636657583E0,2.769091644E0,-6.685247955E0,6.764433289E-1,7.267598251E0
8.646680583E0,3.019371185E0,-6.576873322E0,6.735992432E-1,7.268122246E0
8.656703583E0,3.295546875E0,-6.495592346E0,4.739144897E-1,7.299174205E0
8.666726583E0,3.433110809E0,-6.435866547E0,4.272116089E-1,7.306787105E0
8.676749583E0,3.517535248E0,-6.141728210E0,5.719606018E-1,7.100775913E0
8.686772583E0,3.701951752E0,-5.740712128E0,7.131170654E-1,6.867951547E0
8.696795583E0,3.793261871E0,-5.376968536E0,5.742059326E-1,6.605326541E0
8.706818583E0,3.843257904E0,-5.152884521E0,4.819976807E-2,6.428465869E0
8.716841583E0,3.885919189E0,-5.154980164E0,-4.243675232E-1,6.469488096E0
8.726864583E0,3.675606537E0,-5.225184174E0,-9.708810425E-1,6.461829699E0
8.736887583E0,3.421285400E0,-5.405259705E0,-1.398990784E0,6.548221245E0
8.746910583E0,3.156785431E0,-5.723048859E0,-1.630110168E0,6.736159266E0
8.756933583E0,2.840642853E0,-5.964347076E0,-2.038011932E0,6.913478177E0
8.766956583E0,2.592758331E0,-6.080655212E0,-2.852318573E0,7.199478093E0
8.776979583E0,2.290387115E0,-6.033353577E0,-4.228706360E0,7.715515926E0
8.787002583E0,2.330354004E0,-6.299799500E0,-6.065536652E0,9.050345761E0
8.797025583E0,2.510130157E0,-6.802603912E0,-7.325915680E0,1.030753190E1
8.807049583E0,3.138074341E0,-7.347620544E0,-7.629035339E0,1.104704569E1
8.817072583E0,3.487597504E0,-7.946824493E0,-7.374564514E0,1.138857136E1
8.827095583E0,4.375550995E0,-8.731193390E0,-6.930438080E0,1.197539797E1
8.837118583E0,4.851860504E0,-9.552984467E0,-6.840325470E0,1.271181006E1
8.847141583E0,4.443210297E0,-1.022089554E1,-6.742279358E0,1.302563451E1
8.857164583E0,4.038152618E0,-1.099867813E1,-6.457571411E0,1.337825944E1
8.867187583E0,3.929179230E0,-1.196222443E1,-6.517297211E0,1.417774402E1
8.877210583E0,4.257147217E0,-1.280167877E1,-7.112309875E0,1.525094206E1
8.887233583E0,4.606520691E0,-1.345836319E1,-7.669600983E0,1.616076582E1
8.897256583E0,4.164340210E0,-1.307815384E1,-7.916287994E0,1.584447705E1
8.907279583E0,3.904330902E0,-1.147483795E1,-7.739655304E0,1.438116720E1
8.917302583E0,3.372037811E0,-9.257648621E0,-7.539072418E0,1.240614001E1
8.927325583E0,2.489173737E0,-7.200775909E0,-6.740932159E0,1.017287206E1
8.937348583E0,3.271297302E0,-6.032006378E0,-3.001857605E0,7.489835517E0
8.947371583E0,5.050198059E0,-5.382806396E0,1.916015625E0,7.625629221E0
8.957394583E0,5.939648438E0,-4.877307587E0,4.062701569E0,8.693278834E0
8.967417583E0,6.861431580E0,-5.422773285E0,3.964206390E0,9.602116732E0
8.977440583E0,7.709418182E0,-7.004983063E0,2.764451294E0,1.077715674E1
8.987463583E0,7.980504456E0,-9.462572479E0,-7.291337585E-1,1.240001473E1
8.997486583E0,8.011789398E0,-1.288939636E1,-6.263275452E0,1.641809756E1
9.007509583E0,7.629185028E0,-1.421938065E1,-3.590134277E0,1.653131314E1
9.017532500E0,7.538024597E0,-1.331645828E1,2.078427887E0,1.544246543E1
9.027555500E0,7.435038757E0,-1.150926636E1,4.175866241E0,1.432413600E1
9.037578500E0,6.535110168E0,-8.678952026E0,4.418511658E0,1.172838942E1
9.047601500E0,5.869444427E0,-6.394702148E0,3.955075378E0,9.538617023E0
9.057624500E0,4.643344116E0,-5.280569000E0,3.166664886E0,7.711862295E0
9.067647500E0,3.806733856E0,-5.116510162E0,2.447111206E0,6.830684603E0
9.077670500E0,3.843108215E0,-5.695955200E0,2.177521820E0,7.207980832E0
9.087693500E0,3.761527863E0,-6.342760162E0,2.460134125E0,7.773799473E0
9.097716500E0,4.023183746E0,-6.595285034E0,3.198698273E0,8.361546674E0
9.107739500E0,4.774022369E0,-7.625891876E0,3.793710938E0,9.764105651E0
9.117762500E0,5.561385040E0,-9.117390289E0,4.462969208E0,1.157470965E1
9.127785500E0,5.199288025E0,-1.016027161E1,4.822371826E0,1.239027785E1
9.137808500E0,4.172423401E0,-1.061742096E1,4.617747345E0,1.230700351E1
9.147831500E0,3.560046844E0,-1.122605530E1,3.627257080E0,1.232295602E1
9.157854500E0,2.721790009E0,-1.154474258E1,1.686991882E0,1.198061617E1
9.167877500E0,1.835333405E0,-1.150986511E1,-1.467548218E0,1.174730358E1
9.177900500E0,1.726809082E0,-1.034364029E1,-5.315596161E0,1.175705433E1
9.187923500E0,1.847607880E0,-9.147477722E0,-5.965843964E0,1.107615898E1
9.197946500E0,1.900298309E0,-8.755892029E0,-3.346890106E0,9.564436851E0
9.207969500E0,2.571053467E0,-8.935368805E0,-2.706372070E-1,9.301847994E0
9.217992500E0,3.451971588E0,-9.041348419E0,1.447340240E0,9.785544586E0
9.228015500E0,4.014052734E0,-8.727600861E0,1.602268066E0,9.739142626E0
9.238039500E0,4.406985626E0,-8.188721466E0,1.259181519E0,9.384147252E0
9.248062500E0,4.261039124E0,-7.608677673E0,1.109193420E0,8.790832747E0
9.258085500E0,4.155508575E0,-7.285499725E0,7.978408813E-1,8.425159218E0
9.268108500E0,4.316573639E0,-7.420818329E0,3.522175598E-1,8.592171429E0
9.278131500E0,4.321363678E0,-7.550448761E0,-4.999603271E-2,8.699767821E0
9.288154500E0,4.008963318E0,-8.030799866E0,-3.442840576E-1,8.982430900E0
9.298177500E0,3.482807465E0,-8.652606812E0,-3.442840576E-3,9.327248486E0
9.308200500E0,2.911595306E0,-9.276210022E0,6.746470642E-1,9.745799519E0
9.318223500E0,2.431543579E0,-9.764195251E0,1.274898834E0,1.014284379E1
9.328246500E0,2.246378632E0,-9.828112335E0,1.786085815E0,1.023856003E1
9.338269500E0,2.449805603E0,-9.299411774E0,1.934577026E0,9.809342236E0
9.348292500E0,2.403252411E0,-8.881181488E0,1.651964722E0,9.347726687E0
9.358315500E0,2.228116608E0,-8.691376190E0,1.197958832E0,9.052051097E0
9.368338500E0,2.232008514E0,-8.696016541E0,7.945477295E-1,9.012983511E0
9.378361500E0,2.491419067E0,-8.792715454E0,5.399272156E-1,9.154809415E0
9.388384500E0,2.754122772E0,-8.995992737E0,4.032614136E-1,9.416777439E0
9.398407500E0,2.953508148E0,-9.195677490E0,2.962339783E-1,9.662890326E0
9.408430500E0,3.669020233E0,-9.453890533E0,1.945953369E-1,1.014276210E1
9.418453500E0,4.352199554E0,-9.657317505E0,-6.900650024E-2,1.059293086E1
9.428476500E0,4.642445984E0,-9.802365875E0,-3.881428528E-1,1.085307958E1
9.438499500E0,4.907993774E0,-9.998009033E0,-4.779560852E-1,1.114796078E1
9.448522500E0,4.522844696E0,-1.006417145E1,-5.971083069E-1,1.104989635E1
9.458545500E0,3.909719696E0,-1.003767654E1,-8.075706482E-1,1.080245476E1
9.468568500E0,3.047961731E0,-1.074720108E1,-1.110540619E0,1.122611697E1
9.478591500E0,1.738484802E0,-1.169757477E1,-1.128054199E0,1.187973447E1
9.488614500E0,8.725355530E-1,-1.249002686E1,-7.319778442E-1,1.254184519E1
9.498637500E0,6.053411865E-1,-1.301812866E1,3.472778320E-2,1.303224147E1
9.508660500E0,8.259823608E-1,-1.320089859E1,6.881190491E-1,1.324460185E1
9.518683500E0,1.837578735E0,-1.305809555E1,4.878355408E-1,1.319577730E1
9.528706500E0,3.314707031E0,-1.247580643E1,-1.085692291E0,1.295421771E1
9.538729500E0,5.234913940E0,-1.204979233E1,-3.363655243E0,1.356156317E1
9.548752500E0,6.207441559E0,-1.225037521E1,-6.002817078E0,1.498792302E1
9.558775500E0,6.682403870E0,-1.212613358E1,-6.993157654E0,1.551134717E1
9.568798500E0,7.150480499E0,-1.226624222E1,-5.249583435E0,1.513764168E1
9.578821500E0,7.369624786E0,-1.158560760E1,-3.648812256E0,1.420744537E1
9.588844500E0,7.403155060E0,-1.026071274E1,-4.015100555E0,1.327441009E1
9.598867500E0,7.197183380E0,-9.588161316E0,-4.057612152E0,1.265687570E1
9.608890500E0,6.745123444E0,-9.764195251E0,-1.770518188E0,1.199878885E1
9.618913500E0,5.750142517E0,-1.072953781E1,-1.529818726E-1,1.217417447E1
9.628936500E0,4.798421631E0,-1.207434128E1,1.590742035E0,1.308988265E1
9.638959500E0,4.940625916E0,-1.244362335E1,3.568878479E0,1.385606150E1
9.648982500E0,6.145620117E0,-1.199919754E1,3.999083862E0,1.406207879E1
9.659005500E0,6.747817841E0,-1.153561157E1,3.272345123E0,1.375905602E1
9.669028500E0,7.569908295E0,-1.157108780E1,1.934577026E0,1.396195447E1
9.679052500E0,8.536448364E0,-1.169937103E1,5.929170227E-1,1.449475022E1
9.689075500E0,9.027277679E0,-1.164174088E1,-2.586621094E-1,1.473393291E1
9.699098500E0,9.029972076E0,-1.148741180E1,-9.363029480E-1,1.464164229E1
9.709121500E0,8.776549072E0,-1.064930466E1,-1.404978333E0,1.387117397E1
9.719144500E0,7.669900360E0,-9.529034271E0,-1.171164551E0,1.228826644E1
9.729167500E0,6.453679504E0,-9.049281921E0,-3.367996216E-1,1.111993329E1
9.739190500E0,5.037474518E0,-8.643625488E0,8.518785095E-1,1.004062289E1
9.749213500E0,4.020938416E0,-8.480764160E0,2.272723846E0,9.656944660E0
9.759236500E0,3.276985474E0,-8.640482025E0,3.284619598E0,9.807409919E0
9.769259500E0,1.685494995E0,-8.128396912E0,2.652484131E0,8.714780651E0
9.779282500E0,1.607656860E-1,-7.537425842E0,1.641935577E0,7.715865886E0
9.789305500E0,-3.379971313E-1,-7.029382324E0,9.238787842E-1,7.097887709E0
9.799328500E0,4.475692749E-2,-6.397097168E0,5.545967102E-1,6.421248544E0
9.809351500E0,1.081201630E0,-6.121370544E0,5.769003296E-1,6.242834957E0
9.819374500E0,1.706900482E0,-6.194867706E0,9.783654785E-1,6.499776470E0
9.829397500E0,2.190395050E0,-6.411616974E0,1.192570038E0,6.879599261E0
9.839420500E0,2.672243042E0,-6.816524963E0,1.520538025E0,7.477829320E0
9.849443500E0,3.360960846E0,-7.227420502E0,1.820514221E0,8.175936457E0
9.859466500E0,4.053570557E0,-7.234006805E0,1.478625183E0,8.423100448E0
9.869489500E0,4.808001709E0,-6.584058380E0,7.620652771E-1,8.188250648E0
9.879512500E0,5.578150177E0,-5.692212982E0,3.833528137E-1,7.978972829E0
9.889535500E0,6.298601990E0,-4.916376343E0,4.653822327E-1,8.003731879E0
9.899558500E0,6.745422821E0,-4.114194489E0,5.855822754E-1,7.922766684E0
9.909581500E0,6.839726715E0,-3.452270966E0,4.773573303E-1,7.676451418E0
9.919604500E0,6.720873871E0,-3.027154999E0,-1.865121460E-1,7.373506612E0
9.929627500E0,6.513405304E0,-2.954406281E0,-9.683363342E-1,7.217384594E0
9.939650500E0,6.300248566E0,-3.243155823E0,-1.487756195E0,7.240484112E0
9.949673500E0,6.039191437E0,-3.853436737E0,-1.773062897E0,7.380010836E0
9.959696500E0,5.709127808E0,-4.559668121E0,-2.101330261E0,7.602651022E0
9.969719500E0,5.591771851E0,-5.088368683E0,-2.684367828E0,8.022794957E0
9.979742500E0,5.429958344E0,-5.531896362E0,-3.714974670E0,8.595775810E0
9.989765500E0,5.072202301E0,-5.898484039E0,-5.289999390E0,9.407626889E0
9.999788500E0,5.023852844E0,-6.205196228E0,-6.877597961E0,1.053778494E1
1.000981150E1,5.478457489E0,-6.320905609E0,-7.748636627E0,1.140213637E1
1.001983475E1,5.787714386E0,-6.075565796E0,-7.357799377E0,1.116007837E1
1.002985775E1,5.830675049E0,-5.894143066E0,-6.890770569E0,1.078055718E1
1.003988075E1,5.651946716E0,-6.021827545E0,-6.649921417E0,1.060322420E1
1.004990375E1,4.849016418E0,-6.615193634E0,-6.531817017E0,1.048515048E1
1.005992675E1,3.480861511E0,-7.711513824E0,-6.506669312E0,1.067335879E1
1.006994975E1,2.059267731E0,-9.294172668E0,-6.226601715E0,1.137509552E1
1.007997275E1,7.174580383E-1,-1.132589767E1,-5.291496277E0,1.252160681E1
1.008999575E1,-5.084925842E-1,-1.346420105E1,-4.829856262E0,1.431330801E1
1.010001875E1,-1.325044556E0,-1.529713943E1,-5.422623596E0,1.628382832E1
1.011004175E1,-1.801354065E0,-1.632430344E1,-6.505471802E0,1.766490652E1
1.012006575E1,-1.533411255E0,-1.611099701E1,-7.789801025E0,1.796097366E1
1.013008875E1,5.147795105E-1,-1.456695786E1,-8.809031525E0,1.703115661E1
1.014011175E1,2.446662140E0,-1.187480621E1,-8.459508362E0,1.478379045E1
1.015013475E1,3.024759979E0,-9.140592041E0,-7.459438019E0,1.217960637E1
1.016015775E1,2.526446228E0,-6.795269165E0,-7.035669250E0,1.010243809E1
1.017018075E1,2.111359406E0,-5.069807281E0,-5.103187866E0,7.496886741E0
1.018020375E1,2.966531067E0,-3.820505219E0,-6.866221619E-1,4.885490425E0
1.019022675E1,4.735702057E0,-2.934198303E0,2.528990936E0,6.118185091E0
1.020024975E1,6.918462982E0,-2.987786865E0,4.057462463E0,8.558913601E0
1.021027275E1,9.589658203E0,-4.549339600E0,4.014651489E0,1.134792764E1
1.022029575E1,1.185250259E1,-7.597900085E0,1.958227844E0,1.421423792E1
1.023031875E1,1.051697983E1,-1.229198868E1,-6.078858948E0,1.728156175E1
1.024034175E1,1.039812698E1,-1.919742874E1,-1.711870148E1,2.774368857E1
1.025036475E1,1.191896439E1,-2.007310776E1,-7.248676300E0,2.444452240E1
1.026038775E1,9.737251282E0,-1.539398804E1,5.899831238E0,1.914672136E1
1.027041075E1,7.656128998E0,-9.496252441E0,8.956923981E0,1.513345991E1
1.028043375E1,7.603887634E0,-5.158273315E0,7.285948792E0,1.172654854E1
1.029045675E1,7.443870392E0,-2.723735962E0,5.449717255E0,9.619218376E0
1.030047975E1,6.290668488E0,-1.848206635E0,4.287384338E0,7.833903385E0
1.031050275E1,4.261787567E0,-2.260449371E0,3.404370575E0,5.904422380E0
1.032052575E1,2.636018372E0,-3.472628632E0,3.010689240E0,5.298300875E0
1.033054875E1,2.326761475E0,-5.160818024E0,2.994822235E0,6.404437669E0
1.034057175E1,2.208956451E0,-7.093299408E0,2.965782623E0,7.999390706E0
1.035059475E1,2.624642029E0,-9.223220215E0,3.538791046E0,1.022152528E1
1.036061775E1,3.948938141E0,-1.114582214E1,4.550836487E0,1.267018455E1
1.037064075E1,5.158572693E0,-1.267683838E1,5.255421295E0,1.466057831E1
1.038066375E1,6.424789581E0,-1.394694717E1,5.348827057E0,1.626054143E1
1.039068675E1,6.369704132E0,-1.447055832E1,5.418132935E0,1.671305936E1
1.040070975E1,4.597389679E0,-1.217882401E1,3.678001556E0,1.352728507E1
1.041073275E1,3.671714630E0,-9.888436890E0,-2.014361115E0,1.073873005E1
1.042075575E1,3.345393219E0,-7.817942505E0,-9.133706360E0,1.247944200E1
1.043077875E1,2.802621918E0,-6.618187408E0,-9.807754669E0,1.215924117E1
1.044080175E1,2.703078918E0,-6.646179199E0,-4.387675781E0,8.410114883E0
1.045082475E1,3.368744659E0,-7.356152802E0,4.504133606E-1,8.103350962E0
1.046084775E1,3.894301758E0,-7.766000519E0,3.114872589E0,9.229235152E0
1.047087075E1,4.309388580E0,-7.834707642E0,3.564986572E0,9.626141648E0
1.048089375E1,4.351002045E0,-7.934100952E0,3.007396088E0,9.535492014E0
1.049091675E1,4.258943481E0,-8.027357025E0,2.167043610E0,9.342009334E0
1.050093975E1,4.035757599E0,-8.350984039E0,1.391656036E0,9.378858158E0
1.051096275E1,3.879033508E0,-9.056017914E0,3.598516846E-1,9.858390064E0
1.052098575E1,3.680396576E0,-9.429640961E0,-1.087338867E0,1.018065584E1
1.053100875E1,3.348386993E0,-9.295220490E0,-2.190544739E0,1.011984712E1
1.054103175E1,2.794688416E0,-8.992100830E0,-2.222877502E0,9.675192250E0
1.055105475E1,2.295326843E0,-8.823551331E0,-1.339863739E0,9.215140706E0
1.056107775E1,2.129322052E0,-8.936865692E0,-3.338058472E-1,9.193095624E0
1.057110175E1,2.051483917E0,-9.108259277E0,3.282673645E-1,9.342201710E0
1.058112475E1,2.077679443E0,-9.196126556E0,7.464976501E-1,9.457417948E0
1.059114775E1,2.248474274E0,-9.051676941E0,1.072819061E0,9.388260368E0
1.060117075E1,2.500550079E0,-8.775950317E0,1.027313690E0,9.182887786E0
1.061119375E1,2.672243042E0,-8.657396851E0,6.595285034E-1,9.084403170E0
1.062121675E1,2.754122772E0,-8.541537781E0,2.710862732E-1,8.978671821E0
1.063123975E1,3.235222321E0,-8.558602295E0,4.745132446E-2,9.149786245E0
1.064126275E1,4.099524994E0,-8.772507477E0,1.561253357E-1,9.684387834E0
1.065128575E1,4.235292664E0,-9.313482513E0,1.697470093E-1,1.023266703E1
1.066130875E1,4.422104187E0,-9.882898407E0,-5.089416504E-3,1.082712853E1
1.067133175E1,4.457879791E0,-1.014036301E1,-5.279521179E-1,1.108956210E1
1.068135475E1,4.442611542E0,-1.034648438E1,-1.184636536E0,1.132209786E1
1.069137775E1,4.244872742E0,-1.063643143E1,-1.745071106E0,1.158438135E1
1.070140075E1,3.792962494E0,-1.102756805E1,-1.583407288E0,1.176864479E1
1.071142375E1,3.358266449E0,-1.129670837E1,-5.598358154E-1,1.179860118E1
1.072144675E1,2.888094177E0,-1.136766083E1,6.565347290E-1,1.174716300E1
1.073146975E1,2.211351471E0,-1.169053940E1,1.357077942E0,1.197499258E1
1.074149275E1,1.673519897E0,-1.186492676E1,1.009650421E0,1.202483055E1
1.075151575E1,1.253643036E0,-1.222163498E1,-3.135978699E-1,1.228976509E1
1.076153875E1,1.389560394E0,-1.257160721E1,-1.847458191E0,1.278238192E1
1.077156175E1,1.670376434E0,-1.337363937E1,-2.965782623E0,1.380000921E1
1.078158475E1,1.758692780E0,-1.410322220E1,-3.192561035E0,1.456661672E1
1.079160775E1,2.108964386E0,-1.412642395E1,-3.221450958E0,1.464176665E1
1.080163075E1,2.901715851E0,-1.357392288E1,-4.423451385E0,1.456839934E1
1.081165375E1,4.296215973E0,-1.247835114E1,-6.017336884E0,1.450431184E1
1.082167675E1,5.352569275E0,-1.136002670E1,-6.647676086E0,1.420886350E1
1.083169975E1,6.263574829E0,-1.052745804E1,-6.082152100E0,1.367670708E1
1.084172275E1,6.763385468E0,-1.054227722E1,-4.219126282E0,1.321680818E1
1.085174575E1,6.302194519E0,-1.115420471E1,-1.030008087E0,1.285281507E1
1.086176875E1,5.648204498E0,-1.170520889E1,2.416125641E0,1.321937186E1
1.087179175E1,6.093229065E0,-1.136751114E1,4.523892517E0,1.366796815E1
1.088181475E1,6.717880096E0,-1.090796677E1,4.728067932E0,1.365533882E1
1.089183775E1,6.913672943E0,-1.117186798E1,3.140469360E0,1.350822178E1
1.090186075E1,7.387138367E0,-1.147139511E1,1.343755646E0,1.371015676E1
1.091188375E1,8.426726532E0,-1.165715881E1,-4.715194702E-2,1.438406392E1
1.092190675E1,8.846902771E0,-1.165401535E1,-1.438658295E0,1.470215971E1
1.093192975E1,8.870104523E0,-1.114761841E1,-2.507435760E0,1.446497095E1
1.094195275E1,8.954379272E0,-1.045485901E1,-2.541415100E0,1.399799185E1
1.095197575E1,8.307424622E0,-9.538614349E0,-1.202599182E0,1.270608958E1
1.096199875E1,7.554190979E0,-8.995992737E0,4.005670166E-1,1.175389895E1
1.097202175E1,7.409292297E0,-8.993747406E0,1.561552734E0,1.175685127E1
1.098204475E1,6.943610687E0,-8.765921173E0,2.010918274E0,1.136216950E1
1.099206775E1,4.907095642E0,-8.235723724E0,2.336491241E0,9.867417303E0
1.100209075E1,3.067271576E0,-8.057444458E0,2.687062225E0,9.030552005E0
1.101211375E1,1.836231537E0,-7.697443085E0,1.892514496E0,8.136583277E0
1.102213625E1,9.027726746E-1,-7.232958984E0,7.828720093E-1,7.331001484E0
1.103215925E1,5.767506409E-1,-6.746021576E0,-1.742376709E-1,6.772872889E0
1.104218225E1,7.905061340E-1,-6.313570862E0,-3.787124634E-1,6.374127399E0
1.105220625E1,1.201850739E0,-6.136489105E0,1.516346741E-1,6.254913014E0
1.106222925E1,1.436562653E0,-6.282884674E0,1.017284546E0,6.524815701E0
1.107225225E1,1.658101959E0,-6.429729309E0,1.807940369E0,6.881814403E0
1.108227525E1,2.225571899E0,-6.346502380E0,1.965113525E0,7.006634992E0
1.109229825E1,3.201841736E0,-5.951473846E0,1.751807098E0,6.981451107E0
1.110232125E1,4.380341034E0,-5.249882812E0,1.447340240E0,6.988808975E0
1.111234425E1,5.401667175E0,-4.700375519E0,1.009051666E0,7.231163361E0
1.112236725E1,6.155050507E0,-3.945345612E0,7.171586609E-1,7.346068015E0
1.113239025E1,6.433471527E0,-3.221600647E0,5.522016907E-1,7.216175810E0
1.114241325E1,6.437812500E0,-2.766996002E0,2.486329651E-1,7.011669916E0
1.115243625E1,6.306984558E0,-2.780617676E0,-3.945794678E-1,6.904026494E0
1.116245925E1,6.087540894E0,-3.096760254E0,-9.629475403E-1,6.897488396E0
1.117248225E1,5.766308899E0,-3.657344513E0,-1.178050232E0,6.929234413E0
1.118250525E1,5.114713898E0,-4.454586639E0,-1.630559235E0,6.975841440E0
1.119252825E1,4.202061768E0,-5.386997681E0,-2.504441986E0,7.276626744E0
1.120255125E1,3.350332947E0,-6.217919769E0,-3.551364899E0,7.905659350E0
1.121257425E1,2.425855408E0,-6.938970337E0,-4.918621674E0,8.844598519E0
1.122259725E1,1.855391693E0,-7.381599884E0,-6.445446625E0,9.973679230E0
1.123262025E1,2.254910889E0,-7.433541870E0,-7.342381439E0,1.068890701E1
1.124264325E1,3.086132355E0,-7.317383423E0,-7.400909729E0,1.085549529E1
1.125266625E1,3.469185791E0,-7.069049835E0,-7.001240845E0,1.053679690E1
1.126268925E1,3.428320770E0,-6.963219910E0,-6.246660004E0,9.962960203E0
1.127271225E1,3.241658936E0,-7.272027740E0,-5.469625854E0,9.659583174E0
1.128273525E1,3.065625000E0,-7.779322815E0,-4.900209961E0,9.691644740E0
1.129275825E1,3.072061615E0,-8.452772369E0,-4.717290344E0,1.015577429E1
1.130278125E1,3.070564728E0,-9.179810486E0,-4.795727234E0,1.080260561E1
1.131280425E1,3.052602081E0,-1.007075775E1,-4.839885406E0,1.158287667E1
1.132282725E1,3.076552277E0,-1.111663284E1,-5.157075806E0,1.263487754E1
1.133285025E1,3.103196869E0,-1.199036591E1,-6.059399414E0,1.378822057E1
1.134287325E1,3.318000183E0,-1.245125748E1,-7.939190369E0,1.513518027E1
1.135289625E1,4.021836548E0,-1.222597595E1,-9.256151733E0,1.585326471E1
1.136291925E1,4.629423065E0,-1.114926498E1,-9.069190521E0,1.509926767E1
1.137294225E1,4.849914551E0,-1.051428543E1,-1.011147308E1,1.537250003E1
1.138296525E1,7.084617462E0,-1.100616257E1,-9.530531158E0,1.619130764E1
1.139298825E1,1.043629761E1,-1.138771912E1,-4.487069092E0,1.608509383E1
1.140301125E1,1.263148270E1,-1.172182434E1,-1.148112488E-1,1.723277989E1
1.141303425E1,1.276889694E1,-1.235545670E1,1.154100037E-1,1.776838087E1
1.142305725E1,1.063134201E1,-1.195967972E1,-1.497336273E0,1.607175746E1
1.143308025E1,9.142088928E0,-1.011641281E1,-1.817520447E0,1.375583435E1
1.144310325E1,1.108909012E1,-7.090754700E0,3.718716888E0,1.367755743E1
1.145312625E1,1.118968094E1,-3.946842499E0,7.924820251E0,1.426847228E1
1.146314925E1,1.086934708E1,-1.954186249E0,7.575596466E0,1.339220712E1
1.147317225E1,8.834927673E0,-1.093925171E0,6.727460175E0,1.115846493E1
1.148319525E1,5.759572906E0,-1.517993317E0,5.836063843E0,8.338862330E0
1.149321825E1,2.939587097E0,-2.999911652E0,5.559588776E0,6.967759294E0
1.150324125E1,1.515448608E0,-4.830455017E0,6.080804901E0,7.912399661E0
1.151326425E1,1.512005768E0,-6.301745453E0,5.783223724E0,8.685840998E0
1.152328725E1,2.414479065E0,-7.547604675E0,4.946912842E0,9.341733894E0
1.153331025E1,3.678600311E0,-9.307045898E0,4.872068481E0,1.113059993E1
1.154333325E1,4.022734680E0,-1.178005325E1,5.018913116E0,1.342168163E1
1.155335625E1,4.991969147E0,-1.447998871E1,3.418141937E0,1.569310432E1
1.156337925E1,5.803880768E0,-1.762405060E1,-2.142644348E0,1.867841311E1
1.157340225E1,4.678221588E0,-1.704819809E1,-4.366869049E0,1.820978750E1
1.158342525E1,3.265609131E0,-1.324221268E1,-2.970422974E0,1.395864650E1
1.159344925E1,2.266885986E0,-1.081246536E1,-1.602118378E0,1.116310721E1
1.160347225E1,1.696422272E0,-9.661209412E0,-6.243516541E-1,9.828867219E0
1.161349525E1,1.932182007E0,-9.546697540E0,-2.499801636E-1,9.743472241E0
1.162351825E1,2.783162384E0,-9.582473145E0,-2.993774414E-3,9.978466485E0
1.163354125E1,3.200494537E0,-9.319619751E0,5.794450378E-1,9.870878083E0
1.164356425E1,2.957400055E0,-8.576415253E0,1.054107971E0,9.133031112E0
1.165358725E1,3.011737061E0,-8.019573212E0,1.338965607E0,8.670463858E0
1.166361025E1,3.404520264E0,-7.591463470E0,1.423390045E0,8.440800618E0
1.167363325E1,3.357967072E0,-7.450606384E0,9.457333374E-1,8.226900382E0
1.168365625E1,2.887645111E0,-7.499255219E0,6.945556641E-2,8.036301836E0
1.169367925E1,2.817441101E0,-7.460785217E0,-3.029699707E-1,7.980794523E0
1.170370225E1,2.771786041E0,-7.601193237E0,9.864486694E-2,8.091394645E0
1.171372525E1,2.672542419E0,-7.722590790E0,4.808001709E-1,8.186089438E0
1.172374825E1,3.038681030E0,-8.188422089E0,1.182690582E0,8.813773069E0
1.173377125E1,3.483406219E0,-8.555159454E0,2.257305908E0,9.508959046E0
1.174379425E1,3.828139343E0,-8.503516846E0,3.085982666E0,9.822817243E0
1.175381725E1,4.100123749E0,-8.318950653E0,3.310515747E0,9.847612362E0
1.176384025E1,4.443060608E0,-8.159382477E0,2.990930328E0,9.760224085E0
1.177386325E1,4.579576721E0,-8.058941345E0,2.207459564E0,9.528480271E0
1.178388625E1,4.535418549E0,-8.109236755E0,7.906558228E-1,9.324959989E0
1.179390925E1,4.351750488E0,-8.322992249E0,-6.239025879E-1,9.412714100E0
1.180393225E1,3.984264679E0,-8.774752808E0,-1.547631683E0,9.760420877E0
1.181395525E1,3.645968170E0,-9.249565430E0,-1.654210052E0,1.007888662E1
1.182397825E1,3.620670776E0,-9.685309296E0,-1.075663147E0,1.039574549E1
1.183400125E1,3.561992798E0,-9.987830200E0,-3.894900513E-1,1.061113789E1
1.184402425E1,3.310515747E0,-1.000594254E1,-2.993774414E-1,1.054362496E1
1.185404725E1,2.953508148E0,-9.757758636E0,-1.386416931E0,1.028879079E1
1.186407025E1,2.526595917E0,-9.504485321E0,-3.591481476E0,1.046984562E1
1.187409325E1,2.341430969E0,-9.918973389E0,-5.851930847E0,1.175216689E1
1.188411625E1,1.963017883E0,-1.100421661E1,-5.889353027E0,1.263450441E1
1.189413925E1,1.211730194E0,-1.217897369E1,-2.681823120E0,1.252947986E1
1.190416225E1,4.101470947E-1,-1.292232788E1,1.462458801E0,1.301128603E1
1.191418525E1,3.884422302E-1,-1.316557205E1,3.975133667E0,1.375808353E1
1.192420825E1,1.601369934E0,-1.254511230E1,3.298091583E0,1.306987515E1
1.193423125E1,3.250640259E0,-1.152603149E1,-7.864645386E-1,1.200144119E1
1.194425425E1,4.847669220E0,-1.085572540E1,-7.012168121E0,1.380279583E1
1.195427725E1,5.728287964E0,-1.102008362E1,-1.040815613E1,1.620448209E1
1.196430025E1,6.325246582E0,-1.218196747E1,-7.886050873E0,1.583031503E1
1.197432325E1,7.373367004E0,-1.281604889E1,-3.012335815E0,1.508946047E1
1.198434625E1,7.621850281E0,-1.226758942E1,-1.054557037E0,1.448096828E1
1.199436925E1,7.660320282E0,-1.175984528E1,-2.291734314E0,1.422063690E1
1.200439225E1,8.019273834E0,-1.117336487E1,-4.034560089E0,1.433284725E1
1.201441525E1,7.962691498E0,-1.075797867E1,-2.120490417E0,1.355120070E1
1.202443896E1,8.024662628E0,-1.023436752E1,1.858385468E0,1.313739264E1
1.203446196E1,8.071814575E0,-9.742340698E0,2.855761414E0,1.297007194E1
1.204448496E1,8.164322205E0,-9.654473419E0,2.645748138E0,1.291762351E1
1.205450796E1,8.915909271E0,-1.058493851E1,2.526595917E0,1.406833495E1
1.206453096E1,9.873617706E0,-1.197330139E1,1.876647491E0,1.563234079E1
1.207455396E1,1.092727661E1,-1.266127075E1,7.144642639E-1,1.673988084E1
1.208457696E1,1.189785828E1,-1.288116348E1,-4.086502075E-1,1.753996577E1
1.209459996E1,1.198213303E1,-1.231069977E1,-1.116827545E0,1.721546236E1
1.210462296E1,1.044003983E1,-1.066801575E1,-1.847308502E0,1.504039694E1
1.211464596E1,8.933273163E0,-8.846902771E0,-1.503174133E0,1.266217164E1
1.212466896E1,7.728578339E0,-7.879763947E0,8.030799866E-1,1.106646016E1
1.213469196E1,6.356830902E0,-7.667355652E0,3.121907959E0,1.043762191E1
1.214471496E1,4.756658478E0,-7.911947021E0,3.709436188E0,9.949101586E0
1.215473896E1,2.176923065E0,-8.073461151E0,3.332969055E0,9.001580512E0
1.216476196E1,3.393443298E-1,-8.227191467E0,2.171234894E0,8.515638260E0
1.217478496E1,-5.688171387E-2,-7.853568420E0,6.725514221E-1,7.882518498E0
1.218480796E1,2.405497742E-1,-7.153174896E0,-6.866221619E-1,7.190078253E0
1.219483096E1,1.074765015E0,-6.513255615E0,-7.997868347E-1,6.649607321E0
1.220485396E1,1.793570251E0,-6.113736420E0,-2.799179077E-2,6.371455940E0
1.221487696E1,2.451601868E0,-5.962700500E0,7.116201782E-1,6.486181639E0
1.222489996E1,2.712958374E0,-5.950426025E0,1.283131714E0,6.664393447E0
1.223492296E1,3.067570953E0,-5.955066376E0,1.671124878E0,6.904018066E0
1.224494596E1,3.445235596E0,-5.882916412E0,1.952689362E0,7.091639413E0
1.225496896E1,3.694018250E0,-5.483846283E0,2.105222168E0,6.939041811E0
1.226499196E1,4.130660248E0,-4.906047821E0,2.041903839E0,6.730604029E0
1.227501496E1,4.832251282E0,-4.266427917E0,1.832639008E0,6.701613638E0
1.228503796E1,5.282814331E0,-3.729494476E0,1.708397369E0,6.688488460E0
1.229506096E1,5.341192932E0,-3.280877380E0,1.397194519E0,6.422199845E0
1.230508396E1,4.841382294E0,-3.115621033E0,9.286688232E-1,5.831680951E0
1.231510696E1,4.339925079E0,-3.240311737E0,4.150868225E-1,5.432022360E0
1.232512996E1,4.097279663E0,-3.598217468E0,-2.939886475E-1,5.460888106E0
1.233515296E1,3.776047668E0,-3.960164795E0,-1.045875092E0,5.570933127E0
1.234517596E1,3.313060455E0,-4.455784149E0,-1.413959656E0,5.729717608E0
1.235519896E1,3.274590454E0,-5.112468567E0,-1.459165649E0,6.244152615E0
1.236522196E1,3.012335815E0,-5.695206757E0,-1.890867920E0,6.714531149E0
1.237524496E1,2.868335266E0,-6.314468994E0,-3.194956055E0,7.635941990E0
1.238526796E1,2.800825653E0,-7.216343536E0,-4.715194702E0,9.063845732E0
1.239529096E1,2.807411957E0,-7.950417023E0,-5.874384155E0,1.027614139E1
1.240531396E1,2.771636353E0,-8.461154938E0,-6.336024170E0,1.092786865E1
1.241533696E1,3.011138306E0,-9.038354645E0,-6.811435547E0,1.171129638E1
1.242535996E1,3.591032410E0,-9.475745087E0,-7.007527771E0,1.232033702E1
1.243538296E1,4.036805420E0,-9.737400970E0,-7.885302429E0,1.316399522E1
1.244540596E1,4.184548187E0,-1.033316208E1,-9.135802002E0,1.441345067E1
1.245542896E1,3.868854675E0,-1.122291183E1,-9.935888214E0,1.548042833E1
1.246545196E1,3.412453766E0,-1.232521957E1,-1.068373306E1,1.666427407E1
1.247547496E1,3.687282257E0,-1.363439713E1,-1.033106644E1,1.749925053E1
1.248549796E1,4.099674683E0,-1.462982712E1,-8.908125458E0,1.761232163E1
1.249552096E1,4.264931030E0,-1.433778442E1,-7.758665771E0,1.685107099E1
1.250554396E1,4.738695831E0,-1.266306702E1,-6.931186523E0,1.519374381E1
1.251556696E1,5.271887054E0,-1.073896820E1,-5.648952942E0,1.322984885E1
1.252558996E1,6.485413513E0,-9.807904358E0,-5.541775818E0,1.299872515E1
1.253561296E1,8.758137360E0,-9.071435852E0,-3.424877930E0,1.306620478E1
1.254563596E1,1.076157120E1,-7.569459229E0,9.704319763E-1,1.319279598E1
1.255565896E1,1.189725952E1,-5.823789368E0,2.867137756E0,1.355292535E1
1.256568196E1,1.225411743E1,-4.820276184E0,2.003433838E0,1.331961725E1
1.257570496E1,1.227073288E1,-4.858297119E0,2.429447937E-1,1.319973327E1
1.258572796E1,1.085123474E1,-5.453758850E0,8.408015442E-1,1.217373107E1
1.259575096E1,8.152646484E0,-5.595364380E0,3.991000671E0,1.066310619E1
1.260577396E1,6.654412079E0,-5.059179382E0,5.538632355E0,1.002760911E1
1.261579696E1,6.052364044E0,-4.791535950E0,5.281018066E0,9.353025131E0
1.262581996E1,5.154680786E0,-5.112318878E0,5.018464050E0,8.825617244E0
1.263584296E1,4.425397339E0,-6.386918335E0,5.172643433E0,9.334511637E0
1.264586596E1,4.237088928E0,-8.051756287E0,4.799918518E0,1.028702677E1
1.265588896E1,4.154460754E0,-9.919871521E0,4.365671539E0,1.160700147E1
1.266591196E1,4.488266602E0,-1.156689651E1,3.937861176E0,1.301708042E1
1.267593496E1,4.880001984E0,-1.307965073E1,4.403093719E0,1.463826891E1
1.268595796E1,5.055886230E0,-1.432880310E1,5.529950409E0,1.616963003E1
1.269598096E1,4.496050415E0,-1.428180084E1,4.936584320E0,1.576560083E1
1.270600396E1,3.771557007E0,-1.282383270E1,2.592458954E0,1.361602625E1
1.271602696E1,3.169209595E0,-1.049482590E1,-2.974314880E-1,1.096693784E1
1.272605096E1,2.812351685E0,-8.821006622E0,-3.511248322E0,9.901936407E0
1.273607396E1,2.954555969E0,-7.823930054E0,-5.181175690E0,9.838082333E0
1.274609696E1,3.330574036E0,-7.413932648E0,-3.927981720E0,9.027079323E0
1.275611996E1,3.490441589E0,-7.980654144E0,-1.175056458E0,8.789469878E0
1.276614296E1,3.525468750E0,-8.508157196E0,8.084687805E-1,9.245068445E0
1.277616596E1,3.748954010E0,-8.628656616E0,1.289718018E0,9.495880356E0
1.278618896E1,3.295097809E0,-8.464897156E0,1.140178986E0,9.154898227E0
1.279621196E1,2.750081177E0,-8.097710724E0,1.092278595E0,8.621423199E0
1.280623496E1,2.778971100E0,-7.564669189E0,8.660989380E-1,8.105370299E0
1.281625796E1,3.023113403E0,-7.169940033E0,7.807763672E-1,7.820285574E0
1.282628096E1,3.032244415E0,-7.365134125E0,1.146316223E0,8.046971340E0
1.283630396E1,2.966082001E0,-7.620802460E0,1.535656586E0,8.320607773E0
1.284632696E1,3.113824768E0,-7.835456085E0,1.942061462E0,8.652275971E0
1.285634996E1,3.110830994E0,-8.436605988E0,2.113455048E0,9.236897872E0
1.286637296E1,3.034938812E0,-9.096882935E0,2.080224152E0,9.812821472E0
1.287639596E1,3.106490021E0,-9.493707733E0,2.167342987E0,1.022145500E1
1.288641896E1,3.153342590E0,-9.661209412E0,2.135908356E0,1.038482746E1
1.289644196E1,3.292702789E0,-9.407187653E0,1.755100250E0,1.012015060E1
1.290646496E1,3.533252563E0,-8.911717987E0,1.150956573E0,9.655428121E0
1.291648796E1,3.519032135E0,-8.523425446E0,4.987628174E-1,9.234778440E0
1.292651096E1,3.332519989E0,-8.426726532E0,5.987548828E-2,9.061953134E0
1.293653396E1,3.094664612E0,-8.440497894E0,-1.047821045E-2,8.989942356E0
1.294655696E1,2.890339508E0,-8.664581909E0,1.716929626E-1,9.135563508E0
1.295657996E1,2.789000244E0,-8.895850983E0,3.348536682E-1,9.328816326E0
1.296660296E1,2.829416199E0,-9.236093445E0,4.034111023E-1,9.668182801E0
1.297662596E1,3.047812042E0,-9.508975983E0,3.180885315E-1,9.990543669E0
1.298664896E1,3.521127777E0,-9.852062531E0,1.598675537E-1,1.046360524E1
1.299667196E1,4.108656006E0,-1.014410522E1,-1.881587219E-1,1.094620156E1
1.300669496E1,4.608915710E0,-1.018407211E1,-7.191046143E-1,1.120154187E1
1.301671796E1,4.850213928E0,-1.011671219E1,-1.182840271E0,1.128146940E1
1.302674058E1,4.983586578E0,-1.001252884E1,-1.432820435E0,1.127563051E1
1.303676358E1,5.080734558E0,-9.904004517E0,-1.298998718E0,1.120671972E1
1.304678658E1,5.097050629E0,-9.939929810E0,-9.367520142E-1,1.120980080E1
1.305680958E1,4.889282684E0,-1.012120285E1,-7.809260559E-1,1.126737227E1
1.306683258E1,4.382137299E0,-1.029364426E1,-9.807604980E-1,1.123050001E1
1.307685558E1,3.441343689E0,-1.044243484E1,-1.160386963E0,1.105593912E1
1.308687858E1,2.572849731E0,-1.066517166E1,-9.874964905E-1,1.101547056E1
1.309690158E1,1.913919983E0,-1.090138046E1,-3.595523071E-1,1.107395429E1
1.310692458E1,1.522483978E0,-1.119177658E1,7.562274170E-1,1.132014578E1
1.311694758E1,1.524280243E0,-1.159892990E1,1.184935913E0,1.175851514E1
1.312697058E1,2.135758667E0,-1.217687805E1,1.670526123E-1,1.236388817E1
1.313699358E1,2.514620819E0,-1.288400757E1,-1.945055237E0,1.327042610E1
1.314701658E1,2.795436859E0,-1.352901627E1,-4.474644928E0,1.452140474E1
1.315703958E1,3.376378784E0,-1.358410172E1,-4.856201477E0,1.481588492E1
1.316706258E1,3.829187164E0,-1.285601578E1,-3.282673645E0,1.380998777E1
1.317708558E1,4.316274261E0,-1.200099380E1,-2.289488983E0,1.295746255E1
1.318710858E1,4.746479645E0,-1.109402985E1,-2.918181610E0,1.241460234E1
1.319713158E1,4.791985016E0,-1.069945038E1,-3.778442688E0,1.231738560E1
1.320715458E1,4.572391663E0,-1.078986237E1,-2.835403748E0,1.205684079E1
1.321717758E1,3.813020782E0,-1.149564468E1,-1.752555542E0,1.223766420E1
1.322720058E1,3.479963379E0,-1.175685150E1,-2.567161560E-1,1.226375169E1
1.323722358E1,4.380490723E0,-1.154998169E1,1.670077057E0,1.246514875E1
1.324724658E1,5.654042358E0,-1.187091431E1,2.596650238E0,1.340258908E1
1.325726958E1,6.946155396E0,-1.259361145E1,2.878514099E0,1.466744584E1
1.326729258E1,7.887547760E0,-1.320913147E1,2.765050049E0,1.563138080E1
1.327731558E1,8.798852692E0,-1.338172256E1,2.860102386E0,1.626869673E1
1.328733858E1,9.632918243E0,-1.356554031E1,2.673739929E0,1.685128728E1
1.329736158E1,1.012374756E1,-1.322065750E1,2.258653107E0,1.680409365E1
1.330738458E1,1.034378998E1,-1.228630051E1,7.620652771E-1,1.607880327E1
1.331740758E1,8.332123260E0,-1.075258987E1,-1.267713776E0,1.366197516E1
1.332743058E1,7.475454712E0,-9.408684540E0,-1.580563202E0,1.212039389E1
1.333745458E1,7.096742249E0,-8.831185455E0,-2.308200073E-1,1.133167529E1
1.334747758E1,6.268963623E0,-8.644523621E0,9.722282410E-1,1.072254267E1
1.335750058E1,4.700225830E0,-8.702453156E0,1.716181183E0,1.003843074E1
1.336752358E1,3.024310913E0,-8.711284790E0,2.324516144E0,9.509800970E0
1.337754658E1,1.840273132E0,-8.448581085E0,2.768642578E0,9.079124918E0
1.338756958E1,1.347497864E0,-8.269104309E0,2.151775360E0,8.650085188E0
1.339759258E1,1.210981750E0,-8.059839478E0,1.316063232E0,8.255877399E0
1.340761558E1,1.934277649E0,-7.227270813E0,7.315287781E-1,7.517313867E0
1.341763858E1,2.644850006E0,-6.556066589E0,1.256936188E0,7.180329328E0
1.342766158E1,3.337160339E0,-6.172264709E0,1.709894257E0,7.221996202E0
1.343768458E1,3.658691711E0,-5.552703094E0,2.197280731E0,7.003326303E0
1.344770758E1,3.952680359E0,-4.954696655E0,2.474953308E0,6.804270339E0
1.345773058E1,4.464466095E0,-4.454886017E0,2.321372681E0,6.720583164E0
1.346775358E1,4.959187317E0,-4.125271454E0,2.015708313E0,6.758289977E0
1.347777658E1,5.325774994E0,-3.831432495E0,1.909129944E0,6.832900657E0
1.348779958E1,5.721851349E0,-3.505111084E0,1.720821533E0,6.927237062E0
1.349782258E1,5.879024506E0,-3.229085083E0,1.531914368E0,6.880165786E0
1.350784558E1,6.005212097E0,-3.096161499E0,1.290017395E0,6.878439739E0
1.351786858E1,6.032006378E0,-2.966980133E0,7.030879211E-1,6.758875992E0
1.352789158E1,5.894442444E0,-3.003204803E0,8.562194824E-2,6.615967196E0
1.353791458E1,5.667664032E0,-3.303929443E0,-5.230123901E-1,6.581178261E0
1.354793758E1,5.355862427E0,-3.930975494E0,-9.433383179E-1,6.710269581E0
1.355796058E1,5.046755219E0,-4.777165833E0,-8.910969543E-1,7.006076321E0
1.356798358E1,4.370611267E0,-5.717660065E0,-8.334667969E-1,7.244897954E0
1.357800658E1,3.430715790E0,-6.596332855E0,-9.768685913E-1,7.499045953E0
1.358802958E1,2.707719269E0,-7.233857117E0,-1.463057556E0,7.861359287E0
1.359805258E1,2.131417694E0,-7.614365845E0,-2.528990936E0,8.301644642E0
1.360807558E1,1.888173523E0,-7.793692932E0,-4.012256470E0,8.966886347E0
1.361809858E1,2.042352905E0,-7.914342041E0,-5.110522614E0,9.639785097E0
1.362812158E1,2.144739990E0,-8.111482086E0,-5.673801270E0,1.012857700E1
1.363814458E1,2.449955292E0,-8.453221436E0,-5.816304932E0,1.054934295E1
1.364816758E1,2.873274994E0,-9.137598267E0,-5.961502991E0,1.128232818E1
1.365819058E1,2.875969391E0,-1.021640488E1,-7.072792053E0,1.275423522E1
1.366821358E1,2.937940521E0,-1.196596664E1,-8.595575409E0,1.502330752E1
1.367823658E1,2.841391296E0,-1.430275726E1,-9.674531708E0,1.749968381E1
1.368825958E1,3.545527039E0,-1.695823517E1,-9.479936371E0,1.974896695E1
1.369828258E1,4.549339600E0,-1.916823944E1,-9.031618652E0,2.167228713E1
1.370830558E1,4.463867340E0,-1.965188370E1,-9.231153717E0,2.216611927E1
1.371832858E1,3.782783661E0,-1.764231262E1,-8.281678162E0,1.985313174E1
1.372835158E1,4.014352112E0,-1.330208817E1,-6.042035522E0,1.515146084E1
1.373837458E1,3.403622131E0,-9.069190521E0,-4.252357178E0,1.057910213E1
1.374839758E1,2.125130768E0,-6.222111053E0,-3.317102051E0,7.364374567E0
1.375842058E1,2.736010437E0,-4.438120880E0,5.661227417E-1,5.244346005E0
1.376844358E1,5.427713013E0,-3.290307770E0,3.738625488E0,7.366377285E0
1.377846658E1,7.873477020E0,-2.684966583E0,3.642974396E0,9.081406741E0
1.378848958E1,9.400002594E0,-3.249143372E0,2.262095947E0,1.019970879E1
1.379851258E1,9.469458160E0,-5.374723206E0,5.695655823E-1,1.090333400E1
1.380853558E1,7.927814026E0,-8.815767517E0,-8.976832581E-1,1.189007264E1
1.381855858E1,5.930816803E0,-1.112860794E1,1.131197662E0,1.266096800E1
1.382858158E1,5.492977295E0,-1.034049683E1,3.868405609E0,1.233139230E1
1.383860458E1,5.661077728E0,-8.611292725E0,4.553830261E0,1.126674458E1
1.384862758E1,6.074368286E0,-7.599396973E0,3.308420105E0,1.027591495E1
1.385865058E1,6.351442108E0,-7.148833923E0,2.684367828E0,9.932395177E0
1.386867358E1,6.292015686E0,-7.026388550E0,2.627486115E0,9.790979559E0
1.387869758E1,6.116879883E0,-6.989714813E0,2.491419067E0,9.616626313E0
1.388872058E1,5.884113922E0,-7.322622528E0,2.282154236E0,9.667048427E0
1.389874358E1,5.707630920E0,-8.025860138E0,1.870210876E0,1.002442868E1
1.390876658E1,5.541775818E0,-8.969797211E0,2.066452789E0,1.074424350E1
1.391878958E1,5.339246979E0,-9.863588562E0,2.372416534E0,1.146413092E1
1.392881258E1,4.977599030E0,-1.055784485E1,2.172881470E0,1.187291008E1
1.393883558E1,4.567751312E0,-1.061487625E1,1.676513672E0,1.167692802E1
1.394885858E1,4.235292664E0,-9.939929810E0,9.562115479E-1,1.084685434E1
1.395888158E1,3.879332886E0,-9.245523834E0,6.120771790E-1,1.004507706E1
1.396890458E1,3.336112518E0,-8.821006622E0,3.029699707E-1,9.435655535E0
1.397892758E1,2.597099304E0,-8.668174438E0,5.538482666E-2,9.049046379E0
1.398895058E1,2.333347778E0,-8.879385223E0,9.654922485E-2,9.181356956E0
1.399897358E1,2.415826263E0,-9.146878967E0,4.375401306E-1,9.470641623E0
1.400899658E1,2.233355713E0,-9.394613800E0,9.075627136E-1,9.698985322E0
1.401901958E1,2.190544739E0,-9.477990417E0,1.051413574E0,9.784490744E0
1.402904250E1,2.728076935E0,-9.088350677E0,1.032253418E0,9.544949917E0
1.403906550E1,3.517086182E0,-8.605005798E0,8.967851257E-1,9.339177885E0
1.404908850E1,3.891008606E0,-8.352929993E0,9.360035706E-1,9.262153644E0
1.405911150E1,4.087998962E0,-8.089328156E0,1.140178986E0,9.135040977E0
1.406913450E1,4.551584930E0,-7.879464569E0,6.994953918E-1,9.126455012E0
1.407915750E1,5.060227203E0,-7.865543518E0,6.706054688E-2,9.352923142E0
1.408918050E1,5.186265106E0,-7.981851654E0,-4.028123474E-1,9.527305987E0
1.409920350E1,4.886887665E0,-8.350085907E0,-6.788383484E-1,9.698784831E0
1.410922650E1,4.413422241E0,-8.811875610E0,-6.508465576E-1,9.876793452E0
1.411924950E1,3.810326385E0,-9.102421417E0,-5.069956970E-1,9.880774639E0
1.412927250E1,3.467539215E0,-9.131011963E0,-2.887495422E-1,9.771519021E0
1.413929550E1,3.052003326E0,-8.981921997E0,2.398013306E-1,9.489317770E0
1.414931850E1,2.771935730E0,-8.807983704E0,1.077459412E0,9.296511356E0
1.415934150E1,2.910846863E0,-8.620124359E0,1.880389709E0,9.290610254E0
1.416936450E1,3.209475861E0,-8.356223145E0,2.336640930E0,9.251329168E0
1.417938750E1,3.526217194E0,-8.128696289E0,2.502945099E0,9.207314767E0
1.418941050E1,3.554957428E0,-8.034242706E0,2.652783508E0,9.177365554E0
1.419943350E1,3.520079956E0,-8.254434814E0,2.597548370E0,9.342050874E0
1.420945650E1,3.449426880E0,-8.773255920E0,2.161954193E0,9.671742923E0
1.421947950E1,3.412753143E0,-9.229507141E0,1.547032928E0,9.961124282E0
1.422950250E1,3.237467651E0,-9.465266876E0,9.395960999E-1,1.004765220E1
1.423952550E1,3.210673370E0,-9.553732910E0,2.059716797E-1,1.008090573E1
1.424954850E1,3.228486328E0,-9.753267975E0,-5.343887329E-1,1.028761058E1
1.425957150E1,3.258124695E0,-9.959838409E0,-1.098116455E0,1.053658471E1
1.426959450E1,3.348536682E0,-1.022179367E1,-1.230590973E0,1.082645454E1
1.427961750E1,3.461551666E0,-1.062415695E1,-1.054107971E0,1.122346624E1
1.428964050E1,3.280428314E0,-1.105346420E1,-9.577084351E-1,1.156967961E1
1.429966350E1,2.841690674E0,-1.123294098E1,-1.218466187E0,1.165070078E1
1.430968650E1,2.388882294E0,-1.119506973E1,-1.537901917E0,1.154995616E1
1.431970950E1,2.096091156E0,-1.099718124E1,-1.314117279E0,1.127202279E1
1.432973250E1,2.258353729E0,-1.068313431E1,-7.086264038E-1,1.094219684E1
1.433975550E1,2.405647430E0,-1.076740906E1,-2.724334717E-2,1.103290440E1
1.434977850E1,2.785707092E0,-1.113833771E1,4.062551880E-1,1.148859322E1
1.435980150E1,3.093616791E0,-1.175176208E1,5.545967102E-1,1.216478337E1
1.436982550E1,3.323388977E0,-1.251412674E1,-2.544708252E-1,1.295040686E1
1.437984850E1,3.098706207E0,-1.312695236E1,-1.482367401E0,1.356894512E1
1.438987150E1,2.953957214E0,-1.317859497E1,-2.676883392E0,1.376833081E1
1.439989450E1,3.486699371E0,-1.230890350E1,-3.550167389E0,1.327666624E1
1.440991750E1,3.644770660E0,-1.138831787E1,-3.523672485E0,1.246572922E1
1.441994050E1,3.816313934E0,-1.096125595E1,-3.660487976E0,1.217015022E1
1.442996350E1,3.982468414E0,-1.077294754E1,-4.433181152E0,1.231135852E1
1.443998650E1,3.929927673E0,-1.051189041E1,-5.023553467E0,1.229553825E1
1.445000950E1,4.122427368E0,-1.072519684E1,-3.943100281E0,1.214793375E1
1.446003250E1,4.170627136E0,-1.136616394E1,-2.097588043E0,1.228754203E1
1.447005550E1,4.087250519E0,-1.199680252E1,-1.520088959E0,1.276477802E1
1.448007850E1,4.766837311E0,-1.208122696E1,-5.167254639E-1,1.299791476E1
1.449010150E1,6.256689148E0,-1.179981216E1,1.517544250E0,1.344189967E1
1.450012450E1,6.928641815E0,-1.223390945E1,3.154689789E0,1.440925694E1
1.451014750E1,7.248825989E0,-1.286035675E1,3.820654907E0,1.524898875E1
1.452017050E1,7.957003326E0,-1.313937653E1,3.546125793E0,1.576490170E1
1.453019350E1,8.832981720E0,-1.297456924E1,2.812950439E0,1.594596198E1
1.454021650E1,9.880503387E0,-1.282877243E1,1.496887207E0,1.626168566E1
1.455023950E1,1.078582077E1,-1.256711655E1,2.612068176E-1,1.656304854E1
1.456026250E1,1.043480072E1,-1.189007446E1,-1.166075134E0,1.586249249E1
1.457028550E1,9.211245117E0,-1.078701828E1,-1.915416870E0,1.431347693E1
1.458030850E1,8.261021118E0,-1.013796799E1,-6.340814209E-1,1.309293413E1
1.459033150E1,7.495063934E0,-9.729317780E0,1.409468994E0,1.236212808E1
1.460035450E1,6.370452576E0,-9.150920563E0,2.389181671E0,1.140307863E1
1.461037750E1,4.141587524E0,-9.031618652E0,2.552192688E0,1.025848772E1
1.462040050E1,2.523602142E0,-8.705297241E0,1.811682587E0,9.242995273E0
1.463042350E1,1.795366516E0,-8.525521088E0,1.778601379E0,8.892202967E0
1.464044650E1,1.438508606E0,-8.357720032E0,1.416504364E0,8.598097217E0
1.465046950E1,1.438807983E0,-7.560477905E0,4.056564331E-1,7.706850959E0
1.466049250E1,1.542242889E0,-6.761140137E0,9.045689392E-1,6.993552319E0
1.467051550E1,1.756746826E0,-6.173911285E0,1.416654053E0,6.573450287E0
1.468053850E1,1.967508545E0,-5.760770416E0,1.525028687E0,6.275609784E0
1.469056150E1,2.167193298E0,-5.407505035E0,1.844763794E0,6.110727531E0
1.470058450E1,2.688708801E0,-5.223088531E0,2.205513611E0,6.274878414E0
1.471060750E1,3.181933136E0,-4.806355133E0,2.073039093E0,6.125621538E0
1.472063050E1,3.456611938E0,-4.271217957E0,1.735640717E0,5.762284063E0
1.473065350E1,3.805536346E0,-3.610342255E0,1.332079926E0,5.412126662E0
1.474067650E1,4.150269470E0,-2.919079742E0,9.348060608E-1,5.159421052E0
1.475069950E1,4.351451111E0,-2.302362213E0,4.894821167E-1,4.947281200E0
1.476072250E1,4.239184570E0,-1.799557800E0,1.386117554E-1,4.607418726E0
1.477074550E1,4.082610168E0,-1.568438416E0,-7.843688965E-2,4.374226468E0
1.478076850E1,3.730392609E0,-1.675615540E0,-4.201762390E-1,4.110968806E0
1.479079150E1,3.526815948E0,-2.238145752E0,-7.930508423E-1,4.251665177E0
1.480081450E1,3.382815399E0,-3.162922668E0,-1.048419800E0,4.748336962E0
1.481083850E1,3.174598389E0,-4.112697601E0,-1.255588989E0,5.344984584E0
1.482086150E1,2.791844330E0,-5.056784363E0,-1.574725342E0,5.987088003E0
1.483088450E1,2.441572723E0,-5.965843964E0,-2.050885162E0,6.764517833E0
1.484090750E1,2.354603577E0,-6.742578735E0,-3.263513489E0,7.852200093E0
1.485093050E1,2.575843506E0,-7.335196381E0,-5.019661560E0,9.254030359E0
1.486095350E1,3.250789948E0,-7.973918152E0,-7.054380341E0,1.113172439E1
1.487097650E1,4.286186829E0,-8.771908722E0,-8.791667633E0,1.313815816E1
1.488099950E1,5.201233978E0,-9.865085449E0,-9.858648834E0,1.488508323E1
1.489102250E1,5.808221741E0,-1.121632553E1,-1.126751907E1,1.692626315E1
1.490104550E1,6.467001801E0,-1.323862015E1,-1.368574036E1,2.010926813E1
1.491106850E1,7.476801910E0,-1.620844437E1,-1.418061127E1,2.279706059E1
1.492109150E1,8.286917267E0,-1.885868317E1,-1.088671097E1,2.329900007E1
1.493111450E1,6.990014191E0,-1.962823288E1,-7.920628967E0,2.229045059E1
1.494113750E1,4.870571594E0,-1.816517532E1,-6.985523529E0,2.006224317E1
1.495116050E1,3.603007507E0,-1.436652466E1,-5.991440735E0,1.597736073E1
1.496118350E1,2.925666046E0,-1.014739838E1,-4.190535736E0,1.136176947E1
1.497120650E1,1.476679230E0,-6.871011658E0,-2.122436371E0,7.341397612E0
1.498122950E1,-5.498066711E-1,-4.678520966E0,1.170565796E-1,4.712170205E0
1.499125250E1,3.998185730E-1,-3.153043213E0,3.335962830E0,4.607622423E0
1.500127550E1,3.229384460E0,-1.793869629E0,5.395529938E0,6.539008759E0
1.501129850E1,4.314178619E0,-1.141825562E0,4.722080383E0,6.497226017E0
1.502132196E1,4.234843597E0,-2.118095398E0,2.076481934E0,5.170300342E0
1.503134496E1,3.159479828E0,-5.758974152E0,-3.471580811E0,7.429668188E0
1.504136796E1,2.886447601E0,-1.221430023E1,-1.010952713E1,1.611593152E1
1.505139096E1,6.607858887E0,-1.657039169E1,-5.079836426E0,1.854848830E1
1.506141396E1,9.462572479E0,-1.530492325E1,3.372037811E0,1.830714594E1
1.507143696E1,9.237590332E0,-1.243598923E1,5.240901489E0,1.635401943E1
1.508145996E1,8.668922882E0,-1.025173141E1,3.659140778E0,1.391537036E1
1.509148296E1,9.079219666E0,-8.441994781E0,2.524799652E0,1.265204011E1
1.510150596E1,8.724158020E0,-6.380032654E0,2.329156494E0,1.105625252E1
1.511152896E1,7.157815247E0,-4.869523773E0,2.334245911E0,8.966341777E0
1.512155196E1,5.895190887E0,-4.329297180E0,2.151775360E0,7.624055802E0
1.513157496E1,5.416336670E0,-4.700974274E0,2.158211975E0,7.489575487E0
1.514159796E1,5.305117950E0,-5.766009521E0,2.317630463E0,8.170835528E0
1.515162096E1,5.047952728E0,-7.189249878E0,2.834355927E0,9.230423288E0
1.516164496E1,5.199288025E0,-8.722212067E0,3.789519653E0,1.083835959E1
1.517166796E1,5.657036133E0,-1.018990997E1,4.517605591E0,1.249980333E1
1.518169096E1,5.329217834E0,-1.126377686E1,4.475243683E0,1.324012983E1
1.519171396E1,4.955744476E0,-1.150342850E1,3.837420044E0,1.310015508E1
1.520173696E1,4.644841003E0,-1.088012466E1,2.780617676E0,1.215250984E1
1.521175996E1,3.914958801E0,-1.027119095E1,6.623725891E-1,1.101194821E1
1.522178296E1,2.992576904E0,-9.660011902E0,-2.368674316E0,1.038662431E1
1.523180596E1,2.077230377E0,-9.023086395E0,-5.017266541E0,1.053109385E1
1.524182896E1,1.763632507E0,-8.129893799E0,-4.691094818E0,9.550494406E0
1.525185196E1,2.082619171E0,-7.760761414E0,-2.294877777E0,8.356625177E0
1.526187496E1,2.978955231E0,-7.678133240E0,1.404080200E-1,8.236966597E0
1.527189796E1,3.971391449E0,-7.488477631E0,1.689386902E0,8.643105655E0
1.528192096E1,4.374353485E0,-7.427853699E0,1.797013092E0,8.805522985E0
1.529194396E1,4.694238281E0,-7.492219849E0,1.099763031E0,8.909473050E0
1.530196696E1,4.791086884E0,-7.492369537E0,3.400927734E-1,8.899762800E0
1.531198996E1,4.732857971E0,-7.619604950E0,-1.332229614E-1,8.970845697E0
1.532201296E1,4.449497223E0,-7.901917877E0,-3.375480652E-1,9.074815170E0
1.533203596E1,3.798800354E0,-8.286917267E0,-1.953437805E-1,9.118225765E0
1.534205896E1,3.085383911E0,-8.645721130E0,1.119671631E-1,9.180447941E0
1.535208196E1,2.615660706E0,-8.935518494E0,5.186714172E-1,9.324923148E0
1.536210496E1,2.423310699E0,-9.118887177E0,7.439529419E-1,9.464671366E0
1.537212796E1,2.484832764E0,-9.050180054E0,6.162684631E-1,9.405314438E0
1.538215096E1,2.567760315E0,-8.829838257E0,2.499801636E-1,9.199017706E0
1.539217396E1,2.521356812E0,-8.577762451E0,-1.414558411E-1,8.941770440E0
1.540219696E1,2.410886536E0,-8.432115326E0,-2.454895020E-1,8.773437630E0
1.541221996E1,2.345322876E0,-8.518635406E0,1.781295776E-2,8.835610102E0
1.542224296E1,2.276615753E0,-8.829089813E0,4.903802490E-1,9.131061220E0
1.543226596E1,2.395468597E0,-9.225166168E0,7.966433716E-1,9.564340087E0
1.544228896E1,2.828817444E0,-9.731712799E0,9.659413147E-1,1.018044620E1
1.545231196E1,3.666774902E0,-1.012329849E1,7.623646545E-1,1.079386911E1
1.546233496E1,4.637356567E0,-1.030187714E1,-1.883084106E-1,1.129907999E1
1.547235796E1,5.154680786E0,-1.052266800E1,-1.451980591E0,1.180701162E1
1.548238096E1,5.118306427E0,-1.085153412E1,-2.383493500E0,1.223249340E1
1.549240396E1,4.594545593E0,-1.131512009E1,-2.260748749E0,1.241985413E1
1.550242696E1,3.770808563E0,-1.147887955E1,-8.598120117E-1,1.211292490E1
1.551244996E1,2.972668304E0,-1.141855499E1,7.982899475E-1,1.182613300E1
1.552247296E1,2.593806152E0,-1.139625137E1,1.571881256E0,1.179292951E1
1.553249596E1,2.384241943E0,-1.177152100E1,1.238674164E0,1.207425484E1
1.554251896E1,2.538870392E0,-1.243089981E1,3.218307495E-2,1.268755960E1
1.555254196E1,2.923570404E0,-1.339025482E1,-1.641486511E0,1.380364684E1
1.556256596E1,3.020119629E0,-1.458866272E1,-3.100053406E0,1.521711318E1
1.557258896E1,3.097658386E0,-1.514355881E1,-3.959566040E0,1.595622211E1
1.558261196E1,3.789819031E0,-1.442954361E1,-4.365072784E0,1.554439827E1
1.559263496E1,4.949756927E0,-1.321197556E1,-5.247637482E0,1.505304258E1
1.560265796E1,5.975723419E0,-1.215607132E1,-5.675447845E0,1.468638991E1
1.561268096E1,6.719227295E0,-1.072280182E1,-5.543272705E0,1.381500512E1
1.562270396E1,6.973698120E0,-9.732610931E0,-4.559817810E0,1.281203026E1
1.563272696E1,6.395300903E0,-9.402098236E0,-2.792143707E0,1.170877412E1
1.564274996E1,5.631439362E0,-9.613907776E0,-4.727169800E-1,1.115185157E1
1.565277296E1,6.029461670E0,-9.691596222E0,1.965263214E0,1.158204234E1
1.566279596E1,6.981631622E0,-1.030951126E1,3.401676178E0,1.290738561E1
1.567281896E1,8.036038971E0,-1.191372528E1,3.713477783E0,1.484266451E1
1.568284196E1,8.789871368E0,-1.328726898E1,3.662882996E0,1.634717307E1
1.569286496E1,9.188043365E0,-1.425171341E1,3.184477844E0,1.725318449E1
1.570288796E1,9.455387421E0,-1.461051727E1,1.061891785E0,1.743557227E1
1.571291096E1,9.594747620E0,-1.411160477E1,-9.407936096E-1,1.709039682E1
1.572293396E1,9.350006561E0,-1.301109329E1,-2.220482483E0,1.617534277E1
1.573295696E1,8.896749115E0,-1.155746613E1,-2.952759705E0,1.488106038E1
1.574297996E1,7.941435699E0,-1.011850845E1,-1.927242279E0,1.300633988E1
1.575300296E1,7.095694427E0,-9.447603607E0,1.086740112E-1,1.181600200E1
1.576302596E1,6.431076508E0,-9.341025238E0,2.501597900E0,1.161341851E1
1.577304896E1,5.356012115E0,-9.395362244E0,3.983815613E0,1.152521081E1
1.578307196E1,3.922892303E0,-9.048832855E0,3.779640198E0,1.056201402E1
1.579309496E1,2.113604736E0,-8.443491669E0,2.843187561E0,9.156614661E0
1.580311796E1,7.460485840E-1,-7.797734528E0,1.442849579E0,7.965115640E0
1.581314096E1,4.403842163E-1,-6.762786713E0,-4.207749939E-1,6.790160085E0
1.582316396E1,8.887019348E-1,-5.959856415E0,-2.029779053E-1,6.029169067E0
1.583318696E1,1.730251923E0,-5.568869476E0,1.091081085E0,5.932666929E0
1.584320996E1,2.318678284E0,-5.404511261E0,1.508712616E0,6.071344555E0
1.585323296E1,2.502795410E0,-5.204976196E0,1.606609039E0,5.994743921E0
1.586325596E1,2.504292297E0,-5.090015259E0,1.704954529E0,5.923394735E0
1.587327896E1,2.963237915E0,-5.011428680E0,1.805245972E0,6.095417080E0
1.588330196E1,3.485501862E0,-4.829706573E0,1.757195892E0,6.209873285E0
1.589332496E1,4.250860291E0,-4.310885468E0,1.864373016E0,6.334779670E0
1.590334796E1,4.915777588E0,-3.501967621E0,2.026336212E0,6.366685555E0
1.591337096E1,4.976102142E0,-2.812052307E0,1.828747101E0,6.001128783E0
1.592339396E1,4.915777588E0,-2.261048126E0,1.585203552E0,5.638269081E0
1.593341696E1,4.811893616E0,-1.830243988E0,1.126257935E0,5.269968706E0
1.594343996E1,4.577930145E0,-1.743723907E0,5.460644531E-1,4.929117960E0
1.595346296E1,4.116589508E0,-1.987417145E0,7.634124756E-2,4.571866585E0
1.596348596E1,3.634591827E0,-2.664908295E0,-5.631289673E-1,4.541927807E0
1.597350896E1,3.304977264E0,-3.597918091E0,-1.244362335E0,5.041460793E0
1.598353196E1,3.307222595E0,-4.644841003E0,-1.835333405E0,5.990051581E0
1.599355496E1,2.669848022E0,-5.684728546E0,-2.325264587E0,6.697095080E0
1.600357796E1,1.622476044E0,-6.736591187E0,-3.188818817E0,7.627755553E0
1.601360096E1,9.009764099E-1,-7.757019196E0,-4.637805634E0,9.082529735E0
1.602362388E1,1.030457153E0,-8.572972412E0,-6.393504639E0,1.074404949E1
1.603364688E1,1.850302277E0,-8.900940399E0,-8.393345947E0,1.237330250E1
1.604367088E1,2.835104370E0,-9.136999512E0,-9.711654510E0,1.363227091E1
1.605369388E1,3.696263580E0,-9.734407196E0,-9.370064850E0,1.400782507E1
1.606371688E1,4.185596008E0,-1.079315552E1,-9.784702606E0,1.515756659E1
1.607373988E1,4.461622009E0,-1.261262192E1,-1.078447357E1,1.718398012E1
1.608376288E1,4.839735718E0,-1.506033188E1,-1.021326141E1,1.882942768E1
1.609378588E1,5.120701447E0,-1.753753052E1,-8.617879028E0,2.020035641E1
1.610380888E1,4.449048157E0,-1.908351562E1,-7.093598785E0,2.083971549E1
1.611383188E1,3.124752045E0,-1.872605896E1,-6.226751404E0,1.998003485E1
1.612385488E1,3.460803223E0,-1.650692368E1,-5.772895203E0,1.782644124E1
1.613387787E1,4.980443115E0,-1.353126160E1,-4.994813232E0,1.525935822E1
1.614390088E1,5.874384155E0,-1.089629105E1,-3.133883057E0,1.276944677E1
1.615392388E1,6.599027252E0,-8.661288757E0,-2.582429810E0,1.119080101E1
1.616394687E1,7.343878326E0,-6.667584686E0,-7.864645386E-1,9.950264363E0
1.617396988E1,8.688831482E0,-5.458997955E0,-4.685256958E-1,1.027209655E1
1.618399288E1,9.182355194E0,-5.858966217E0,-1.615141296E-1,1.089354024E1
1.619401588E1,6.509962463E0,-7.048841858E0,5.436694336E0,1.102830123E1
1.620403888E1,4.882097626E0,-6.576274567E0,6.767127686E0,1.062432499E1
1.621406188E1,4.240831146E0,-5.436993713E0,6.394851837E0,9.404237315E0
1.622408488E1,3.999981995E0,-4.818779297E0,6.379583588E0,8.939774976E0
1.623410788E1,3.651806030E0,-4.674329681E0,6.486910400E0,8.790054141E0
1.624413088E1,3.369044037E0,-5.006488953E0,5.869893494E0,8.418493867E0
1.625415388E1,3.830384674E0,-5.746699677E0,4.708159332E0,8.358419003E0
1.626417688E1,4.833598480E0,-6.808591461E0,3.462300110E0,9.039254062E0
1.627419988E1,5.834117889E0,-8.693022766E0,2.723137207E0,1.081762694E1
1.628422288E1,6.791377258E0,-1.170416107E1,3.688779144E0,1.402559386E1
1.629424588E1,6.349496155E0,-1.400442764E1,4.356690216E0,1.598189115E1
1.630426888E1,5.434149628E0,-1.456591003E1,3.312461700E0,1.589553773E1
1.631429188E1,5.362448730E0,-1.338950638E1,1.983974304E0,1.455922015E1
1.632431488E1,5.228776703E0,-1.122949814E1,4.373904419E-1,1.239487978E1
1.633433787E1,4.798571320E0,-9.361233215E0,-1.152303772E0,1.058238055E1
1.634436088E1,3.789070587E0,-7.965685272E0,-1.872306519E0,9.017468019E0
1.635438388E1,3.702251129E0,-7.264842682E0,-1.857038269E0,8.362606875E0
1.636440687E1,3.901337128E0,-7.024592285E0,-1.048120422E0,8.103325526E0
1.637442988E1,4.085753632E0,-6.765481110E0,-1.160087585E-1,7.904339025E0
1.638445288E1,4.479584656E0,-6.523584137E0,7.045848083E-1,7.944826520E0
1.639447588E1,4.855453033E0,-6.414011993E0,1.107846222E0,8.120486270E0
1.640449888E1,5.374723206E0,-6.204148407E0,8.399034119E-1,8.251335936E0
1.641452188E1,5.574707336E0,-6.262227631E0,1.483415222E-1,8.385395756E0
1.642454488E1,5.376220093E0,-6.757547607E0,-3.297642517E-1,8.641581835E0
1.643456788E1,5.110073547E0,-7.165299683E0,-5.447172546E-1,8.817657744E0
1.644459088E1,4.862189026E0,-7.581134949E0,-4.873864746E-1,9.019536286E0
1.645461388E1,4.139791260E0,-8.042026520E0,-1.158590698E-1,9.045744057E0
1.646463688E1,3.185974731E0,-8.699160004E0,5.164260864E-1,9.278605265E0
1.647465988E1,2.623743896E0,-9.316027222E0,1.185684357E0,9.750807281E0
1.648468288E1,2.384241943E0,-9.718839569E0,2.105072479E0,1.022603454E1
1.649470588E1,2.352507935E0,-9.858050079E0,2.657723236E0,1.047754445E1
1.650472888E1,2.345023499E0,-9.540260925E0,2.483784943E0,1.013335588E1
1.651475188E1,2.236948242E0,-9.193132782E0,1.544937286E0,9.586681334E0
1.652477488E1,2.088756409E0,-9.202263794E0,-3.722758484E-1,9.443683157E0
1.653479787E1,1.814227295E0,-9.455088043E0,-2.817740479E0,1.003143918E1
1.654482088E1,1.548230438E0,-9.713600464E0,-4.678520966E0,1.089218114E1
1.655484388E1,1.408870239E0,-9.843081207E0,-4.560566254E0,1.093937510E1
1.656486688E1,1.693727875E0,-9.904004517E0,-2.562820587E0,1.036947776E1
1.657488988E1,2.263293457E0,-9.877509613E0,-6.361770630E-2,1.013369334E1
1.658491388E1,2.935395813E0,-9.761201477E0,1.787433014E0,1.034855157E1
1.659493588E1,3.839964752E0,-9.590256958E0,2.633922729E0,1.066095243E1
1.660495988E1,4.871469727E0,-9.435927887E0,2.471959534E0,1.090314341E1
1.661498288E1,5.766757965E0,-9.736502838E0,1.260229340E0,1.138609516E1
1.662500588E1,6.303990784E0,-1.036444702E1,-7.131170654E-1,1.215197917E1
1.663502888E1,6.091582489E0,-1.080348404E1,-2.396366730E0,1.263191269E1
1.664505188E1,4.994064789E0,-1.104837479E1,-2.651286621E0,1.241114778E1
1.665507488E1,3.720213776E0,-1.119686600E1,-1.176553345E0,1.185723730E1
1.666509788E1,2.864742737E0,-1.134835098E1,4.749623108E-1,1.171398353E1
1.667512088E1,2.481689301E0,-1.176613220E1,7.027885437E-1,1.204552035E1
