"Time (s)","Acceleration x (m/s^2)","Acceleration y (m/s^2)","Acceleration z (m/s^2)","Absolute acceleration (m/s^2)"
-9.446666663E-4,-2.235451355E0,6.965614929E0,5.623505859E0,9.227180081E0
9.077333336E-3,-2.485431519E0,6.849905548E0,5.067112885E0,8.875483583E0
1.910033333E-2,-2.370470581E0,6.450685730E0,5.344336395E0,8.705883566E0
2.912333333E-2,-2.484982452E0,6.256838837E0,5.458698578E0,8.667211788E0
3.914533334E-2,-2.457439728E0,6.089935913E0,5.510490875E0,8.572738135E0
4.916833333E-2,-2.849175110E0,5.604345703E0,6.194119263E0,8.825735267E0
5.919133333E-2,-3.040177917E0,5.177882538E0,7.062164154E0,9.269698586E0
6.921333334E-2,-2.973865814E0,4.857548676E0,7.734116821E0,9.605010152E0
7.923633333E-2,-3.258573761E0,4.812791748E0,8.216862946E0,1.006469592E1
8.925933333E-2,-3.391647034E0,4.961732025E0,8.197852478E0,1.016498104E1
9.928133334E-2,-3.178789673E0,5.217400360E0,8.102351074E0,1.014761367E1
1.093043333E-1,-2.808459778E0,5.448669434E0,8.077353058E0,1.013997423E1
1.193273333E-1,-2.544259186E0,5.577252045E0,8.265511780E0,1.029065985E1
1.293493333E-1,-2.232607269E0,5.581443329E0,8.806486816E0,1.066261014E1
1.393723333E-1,-1.848955078E0,5.367837524E0,9.257049866E0,1.085934099E1
1.493953333E-1,-1.764979706E0,5.272785187E0,9.382189636E0,1.090609460E1
1.594173333E-1,-1.697170715E0,5.520819397E0,9.033863983E0,1.072243133E1
1.694403333E-1,-1.646426239E0,5.844446411E0,8.425529022E0,1.038546159E1
1.794633333E-1,-1.904040527E0,6.033952332E0,7.780370636E0,1.002836568E1
1.894863333E-1,-2.256557465E0,5.954617310E0,7.147486725E0,9.572673889E0
1.995083333E-1,-2.380799103E0,5.503754883E0,6.543792114E0,8.875851363E0
2.095313333E-1,-2.182012482E0,4.616549835E0,5.548511810E0,7.540536729E0
2.195543333E-1,-1.885928192E0,4.657414856E0,5.195545807E0,7.227858225E0
2.295763333E-1,-2.396666107E0,5.391638031E0,6.421795807E0,8.720850330E0
2.395993333E-1,-2.040556641E0,5.749843140E0,7.478149109E0,9.651283937E0
2.496223333E-1,-1.608704681E0,5.946384430E0,8.653355255E0,1.062205139E1
2.596443333E-1,-1.227447510E0,6.005062408E0,9.718989258E0,1.149026345E1
2.696673333E-1,-9.810598755E-1,5.847739563E0,1.032118698E1,1.190316921E1
2.796903333E-1,-1.134191437E0,5.739963684E0,1.043719574E1,1.196530937E1
2.897123333E-1,-1.283580780E0,5.555846558E0,9.875713348E0,1.140371539E1
2.997353333E-1,-9.830058289E-1,5.058131561E0,7.769892426E0,9.323208871E0
3.097583333E-1,-8.735833740E-1,4.950205994E0,6.387666779E0,8.128343876E0
3.197803333E-1,-1.036444702E0,4.864733734E0,5.904770966E0,7.720503357E0
3.298033333E-1,-1.410367126E0,4.688699799E0,5.683980103E0,7.502044457E0
3.398263333E-1,-2.071991272E0,4.337979126E0,6.220464478E0,7.861640353E0
3.498483333E-1,-3.045417023E0,3.943549347E0,7.481142883E0,8.988528530E0
3.598713333E-1,-4.151466980E0,3.827839966E0,1.095511871E1,1.232483927E1
3.698943333E-1,-3.699706421E0,4.408781891E0,1.438628357E1,1.549484883E1
3.799163333E-1,-1.519340515E0,5.043013000E0,1.490106308E1,1.580449482E1
3.899393333E-1,-1.319955139E0,4.328399048E0,1.607117981E1,1.669611153E1
3.999623333E-1,-1.284179535E0,3.033292236E0,1.664254166E1,1.696538157E1
4.099843333E-1,-1.440903625E0,2.117945709E0,1.519400391E1,1.540842795E1
4.200073333E-1,-1.745370483E0,1.091380463E0,1.204290665E1,1.221757054E1
4.300303333E-1,-2.210902405E0,5.258564758E-1,9.510023804E0,9.777789486E0
4.400523333E-1,-2.233655090E0,3.782633972E-1,7.048542480E0,7.403664590E0
4.500753333E-1,-2.516417084E0,-1.794767761E-1,4.959486694E0,5.564267708E0
4.600983333E-1,-2.851270752E0,-5.748046875E-1,4.361031189E0,5.242016631E0
4.701213333E-1,-3.134032745E0,-4.320016479E-1,4.827760620E0,5.772006521E0
4.801433333E-1,-3.177143097E0,-5.562432861E-1,5.118755493E0,6.050231620E0
4.901663333E-1,-3.502117310E0,-1.089135132E0,5.303022308E0,6.447719487E0
5.001893333E-1,-6.090983734E0,-2.575394440E0,5.835465088E0,8.819602721E0
5.102113333E-1,-9.770182800E0,-3.971990204E0,5.535638580E0,1.191119107E1
5.202343333E-1,-8.799900513E0,-3.080444183E0,3.898493042E0,1.010572280E1
5.302573333E-1,-7.253017273E0,-1.817969513E0,9.428293762E0,1.203345320E1
5.402793333E-1,-7.751181335E0,-1.296454010E0,1.447250427E1,1.646860604E1
5.503023333E-1,-5.094805298E0,2.273771667E-1,7.400161285E0,8.987275919E0
5.603253333E-1,-3.384162598E0,1.197659454E0,7.288343811E0,8.124463069E0
5.703473333E-1,-2.064057770E0,2.321073303E0,7.341632996E0,7.971655462E0
5.803703333E-1,-1.540296936E0,3.226540375E0,8.805289307E0,9.503483425E0
5.903937500E-1,-1.368304596E0,3.445834351E0,9.560169525E0,1.025391989E1
6.004157500E-1,-8.789721680E-1,3.236270142E0,9.166937256E0,9.761084732E0
6.104387500E-1,-7.797285461E-1,3.471281433E0,8.470136261E0,9.187000581E0
6.204617500E-1,-7.794291687E-1,4.010609894E0,7.757917328E0,8.767997651E0
6.304837500E-1,-2.194137268E0,4.709805908E0,8.420140228E0,9.894203935E0
6.405067500E-1,-2.188898163E0,5.551804962E0,9.160500641E0,1.093291295E1
6.505297500E-1,-1.254391479E0,6.207890625E0,1.042147842E1,1.219502425E1
6.605517500E-1,-1.115031281E0,6.429280243E0,1.149175278E1,1.321511714E1
6.705747500E-1,-9.898915100E-1,5.997727661E0,1.214379684E1,1.358029543E1
6.805977500E-1,6.297404480E-1,5.008135529E0,1.248628464E1,1.346793594E1
6.906197500E-1,1.795366516E0,4.111799469E0,1.249541565E1,1.327650737E1
7.006427500E-1,1.865420837E0,3.520079956E0,1.164847687E1,1.231088019E1
7.106657500E-1,1.199755096E0,3.534001007E0,1.129491211E1,1.189552920E1
7.206877500E-1,1.511856079E-1,4.105662231E0,1.076965439E1,1.152669836E1
7.307107500E-1,-5.432203674E-1,4.890180817E0,1.025427612E1,1.137361577E1
7.407337500E-1,-7.545808411E-1,5.567971344E0,9.962832184E0,1.143808211E1
7.507557500E-1,-8.319699097E-1,5.825735321E0,1.023421783E1,1.180553178E1
7.607787500E-1,-7.970924377E-1,5.720055084E0,1.102083206E1,1.244239229E1
7.708017500E-1,1.767823792E-1,5.232069855E0,1.152228928E1,1.265578750E1
7.808237500E-1,2.354304199E0,4.425846405E0,1.152917496E1,1.257190279E1
7.908467500E-1,2.172582092E0,3.934568024E0,1.160641434E1,1.244627624E1
8.008697500E-1,1.490749969E0,4.177961884E0,1.104104004E1,1.189883465E1
8.108927500E-1,1.203048248E0,4.086352386E0,9.885892181E0,1.076459312E1
8.209147500E-1,9.304650879E-1,3.415148163E0,8.398435364E0,9.113875071E0
8.309377500E-1,5.911207581E-1,2.728076935E0,6.822362823E0,7.371327018E0
8.409607500E-1,1.126856689E0,2.511926422E0,6.714287567E0,7.256806314E0
8.509827500E-1,2.119292908E0,2.707569580E0,7.230114899E0,8.006053766E0
8.610057500E-1,3.108885040E0,2.614612885E0,7.476352844E0,8.508655510E0
8.710287500E-1,3.950285339E0,2.330653381E0,7.828720093E0,9.073343250E0
8.810507500E-1,4.779111786E0,2.512375488E0,7.879913635E0,9.552223770E0
8.910737500E-1,4.910239105E0,2.565664673E0,7.949818268E0,9.689824239E0
9.010967500E-1,5.102589111E0,2.278262329E0,7.663613434E0,9.484612050E0
9.111187500E-1,5.402565308E0,2.036215668E0,7.020850067E0,9.089896689E0
9.211417500E-1,5.443580017E0,1.967209167E0,6.666985931E0,8.828996360E0
9.311647500E-1,5.464386749E0,1.974693604E0,6.550827484E0,8.756270787E0
9.411867500E-1,5.413043518E0,2.082469482E0,6.288423157E0,8.554646987E0
9.512097500E-1,5.812562714E0,2.223625946E0,5.780379639E0,8.493714524E0
9.612327500E-1,6.562353516E0,2.227966919E0,4.859794006E0,8.464391180E0
9.712547500E-1,6.822063446E0,2.645897827E0,4.020040283E0,8.348775291E0
9.812777500E-1,6.569987640E0,3.053649902E0,3.447780304E0,8.023509478E0
9.913007500E-1,6.157445526E0,3.243604889E0,3.132685547E0,7.632091903E0
1.001322750E0,5.998625793E0,3.090473328E0,2.909349976E0,7.348391258E0
1.011345750E0,5.662275238E0,2.959046631E0,2.907703400E0,7.019405737E0
1.021368750E0,5.608536987E0,3.250191193E0,2.943329315E0,7.119172521E0
1.031390750E0,6.246061249E0,3.999383240E0,2.809956665E0,7.931217049E0
1.041413750E0,7.020999756E0,4.770729218E0,2.966980133E0,8.992066834E0
1.051436750E0,7.286996613E0,4.988376617E0,3.453767853E0,9.482232506E0
1.061458750E0,7.422913971E0,4.899910583E0,3.736080780E0,9.647127818E0
1.071481750E0,7.619006195E0,4.880301361E0,3.877686310E0,9.843934574E0
1.081504750E0,7.426506500E0,4.817881165E0,4.148622894E0,9.776300406E0
1.091526750E0,6.665489044E0,4.930297394E0,4.516108704E0,9.440964697E0
1.101549750E0,6.352340240E0,4.984035645E0,4.555776215E0,9.270810901E0
1.111572750E0,6.438261566E0,4.898264008E0,4.279600525E0,9.152004312E0
1.121594750E0,6.175408173E0,4.875661011E0,4.293371887E0,8.963301766E0
1.131617750E0,6.073320465E0,4.997956696E0,4.355193329E0,8.990689714E0
1.141640750E0,6.488856354E0,5.316194916E0,4.209845581E0,9.385626510E0
1.151663750E0,6.745273132E0,5.778583374E0,4.310735779E0,9.872850571E0
1.161685750E0,6.868466949E0,5.953569489E0,4.709506531E0,1.023720077E1
1.171708750E0,7.310348053E0,5.613776093E0,4.652325439E0,1.032471804E1
1.181731750E0,7.599097595E0,5.415288849E0,4.377197571E0,1.030686646E1
1.191753750E0,7.596103821E0,5.642067261E0,4.297413483E0,1.039237600E1
1.201776750E0,7.438930664E0,5.585484924E0,4.276756439E0,1.023845579E1
1.211799750E0,7.015161896E0,5.930667114E0,4.509971466E0,1.023353074E1
1.221821750E0,7.617658997E0,5.854625244E0,4.255201263E0,1.050771636E1
1.231844750E0,8.211623840E0,5.781577148E0,4.311334534E0,1.092908989E1
1.241867750E0,8.594527588E0,5.694308624E0,4.376299438E0,1.120013625E1
1.251889750E0,9.001531219E0,5.491330719E0,4.584217072E0,1.149770949E1
1.261912750E0,9.132059784E0,5.386398926E0,5.051245880E0,1.174405783E1
1.271935750E0,9.237740021E0,4.790787506E0,4.784799957E0,1.145346219E1
1.281957750E0,9.246122589E0,4.793182526E0,4.767885132E0,1.145417436E1
1.291980750E0,9.267827454E0,4.790188751E0,4.424648895E0,1.133208065E1
1.302003750E0,9.561965790E0,4.758454742E0,3.857478333E0,1.135580118E1
1.312025750E0,9.546398163E0,4.985233154E0,3.634591827E0,1.136646494E1
1.322048750E0,9.799222412E0,4.929249573E0,3.215613098E0,1.143076676E1
1.332071750E0,9.995614014E0,4.547393646E0,3.066373444E0,1.140147949E1
1.342093750E0,9.959539032E0,4.085005188E0,3.102598114E0,1.120293712E1
1.352116750E0,9.803114319E0,3.558699646E0,3.168311462E0,1.089970601E1
1.362139750E0,9.737550659E0,2.909050598E0,3.219055939E0,1.066043101E1
1.372161750E0,9.800120544E0,2.400108948E0,3.362308044E0,1.063522454E1
1.382184750E0,9.764344940E0,2.366878052E0,3.470233612E0,1.062953739E1
1.392207750E0,9.965825958E0,2.493664398E0,3.107537842E0,1.073279277E1
1.402229750E0,1.011895752E1,2.558180237E0,2.733914795E0,1.078943360E1
1.412252750E0,1.000773880E1,2.561174011E0,2.507286072E0,1.063018963E1
1.422275750E0,9.747430115E0,2.399061127E0,2.146685944E0,1.026528853E1
1.432297750E0,9.603130188E0,1.771715698E0,1.177750854E0,9.835963755E0
1.442320750E0,9.090446320E0,1.481918335E0,9.102571106E-1,9.255315459E0
1.452343750E0,8.742569733E0,1.564396820E0,8.301736450E-1,8.920148610E0
1.462365750E0,8.784183197E0,1.232387238E0,5.980064392E-1,8.890346700E0
1.472388750E0,8.614735565E0,8.888516235E-1,7.476951599E-1,8.692685093E0
1.482411750E0,8.229586487E0,7.990383911E-1,1.308129730E0,8.371126536E0
1.492433750E0,8.127349091E0,3.360511780E-1,1.098715210E0,8.208161106E0
1.502456750E0,8.259524231E0,-1.532812500E-1,9.758207703E-1,8.318380963E0
1.512479750E0,8.210725708E0,-1.498384094E-1,1.165775757E0,8.294425918E0
1.522501750E0,8.097411346E0,1.077758789E-2,1.278042297E0,8.197656908E0
1.532524750E0,7.999814301E0,4.131408691E-2,1.525028687E0,8.143982330E0
1.542547750E0,7.721842346E0,-6.117778015E-1,1.399589539E0,7.871465694E0
1.552569750E0,7.898175659E0,-7.851173401E-1,1.479523315E0,8.073820485E0
1.562592750E0,7.329208832E0,-9.892927551E-1,2.019001465E0,7.666313923E0
1.572615750E0,7.386838989E0,-1.453477478E0,2.130519562E0,7.824135776E0
1.582637750E0,7.624544678E0,-1.688788147E0,2.524500275E0,8.207240010E0
1.592660875E0,7.223079529E0,-2.196681976E0,2.905158691E0,8.089390373E0
1.602683875E0,6.985972595E0,-2.758463745E0,2.868185577E0,8.039864666E0
1.612705875E0,7.352859650E0,-3.047512665E0,2.926115112E0,8.480213919E0
1.622728875E0,7.383545837E0,-3.444187775E0,3.028053131E0,8.691851605E0
1.632751875E0,7.512278137E0,-3.867357788E0,3.030747528E0,8.976425216E0
1.642774875E0,7.850275269E0,-4.126169586E0,3.114423523E0,9.399560156E0
1.652796875E0,8.191864929E0,-4.321363678E0,3.214714966E0,9.803837380E0
1.662819875E0,8.808283081E0,-4.413871307E0,3.252137146E0,1.037518707E1
1.672842875E0,9.219777374E0,-4.466262360E0,3.162623291E0,1.072165940E1
1.682864875E0,9.536219330E0,-4.915029144E0,3.164868622E0,1.118540942E1
1.692887875E0,9.917476501E0,-5.086871796E0,3.157234497E0,1.158450407E1
1.702910875E0,9.965975647E0,-4.979095917E0,3.167113953E0,1.158199799E1
1.712932875E0,1.014365616E1,-4.843028870E0,3.191812592E0,1.168487726E1
1.722955875E0,1.033391052E1,-4.851411438E0,3.103047180E0,1.183024942E1
1.732978875E0,1.063164139E1,-4.883444824E0,2.881358185E0,1.204915171E1
1.743000875E0,1.090482330E1,-4.803660736E0,2.631078644E0,1.220298744E1
1.753023875E0,1.107891129E1,-4.630321198E0,2.431244202E0,1.225124884E1
1.763046875E0,1.121512802E1,-4.646936646E0,2.350711670E0,1.236523199E1
1.773068875E0,1.189321793E1,-3.726650391E0,1.930984497E0,1.261210755E1
1.783091875E0,1.239452545E1,-3.114124146E0,1.557810516E0,1.287434674E1
1.793114875E0,1.233090775E1,-4.174968109E0,1.720372467E0,1.313169166E1
1.803136875E0,1.112456635E1,-5.029391327E0,1.967508545E0,1.236615718E1
1.813159875E0,1.070364166E1,-5.905220032E0,2.246977386E0,1.242933932E1
1.823182875E0,1.075333832E1,-5.968238983E0,2.722538452E0,1.259628426E1
1.833204875E0,1.077803696E1,-5.638325043E0,2.517764282E0,1.242159116E1
1.843227875E0,1.090811646E1,-5.243146820E0,2.343975677E0,1.232768491E1
1.853250875E0,1.093835358E1,-4.828658752E0,2.243534546E0,1.216540059E1
1.863272875E0,1.106020020E1,-4.551884308E0,2.030228119E0,1.213134392E1
1.873295875E0,1.126123215E1,-4.398603058E0,1.805844727E0,1.222391646E1
1.883318875E0,1.148980682E1,-4.248165894E0,1.573527832E0,1.235065035E1
1.893340875E0,1.159623550E1,-4.074077911E0,1.338366852E0,1.236373789E1
1.903363875E0,1.164278870E1,-3.908971252E0,1.059197388E0,1.232706307E1
1.913386875E0,1.167347488E1,-3.763623505E0,8.400531006E-1,1.229392399E1
1.923408875E0,1.170071823E1,-3.631298676E0,7.650590515E-1,1.227511517E1
1.933431875E0,1.167811523E1,-3.551364899E0,7.882608032E-1,1.223159528E1
1.943454875E0,1.166404449E1,-3.474125519E0,7.785310364E-1,1.219531027E1
1.953476875E0,1.162377823E1,-3.433410187E0,7.912545776E-1,1.214605325E1
1.963499875E0,1.160910873E1,-3.404669952E0,8.765771484E-1,1.212978032E1
1.973522875E0,1.157782379E1,-3.430416412E0,9.931846619E-1,1.211611226E1
1.983544875E0,1.153082153E1,-3.525468750E0,1.166973267E0,1.211406628E1
1.993567875E0,1.154115005E1,-3.637136536E0,1.457070007E0,1.218810731E1
2.003590875E0,1.149789001E1,-3.704047394E0,1.801952820E0,1.221345471E1
2.013612875E0,1.128727798E1,-3.673510895E0,2.116299133E0,1.205719904E1
2.023635875E0,1.098430801E1,-3.519780579E0,2.364183655E0,1.177426185E1
2.033658875E0,1.064631088E1,-3.268602905E0,2.460732880E0,1.140538937E1
2.043680875E0,1.030142807E1,-3.005150757E0,2.384990387E0,1.099265803E1
2.053703875E0,1.008662476E1,-2.917882233E0,2.344724121E0,1.075879951E1
2.063726875E0,9.875114594E0,-3.110681305E0,2.312840424E0,1.060865011E1
2.073748875E0,9.689799957E0,-3.433559875E0,2.150877228E0,1.050275342E1
2.083771875E0,9.478140106E0,-3.738176422E0,2.005379791E0,1.038415384E1
2.093794875E0,9.334289246E0,-4.017196198E0,2.001188507E0,1.035719926E1
2.103816875E0,9.199419708E0,-4.200864258E0,2.145338745E0,1.033823301E1
2.113839875E0,9.037306824E0,-4.435576172E0,2.155667267E0,1.029534613E1
2.123862875E0,8.920848999E0,-4.660857697E0,2.077829132E0,1.027728151E1
2.133884875E0,8.785380707E0,-4.711901550E0,1.913470917E0,1.015117241E1
2.143907875E0,8.631949768E0,-4.809348907E0,1.794019318E0,1.004285313E1
2.153930875E0,8.667725372E0,-5.145699463E0,1.693877563E0,1.022139459E1
2.163952875E0,8.398435364E0,-5.344186707E0,1.498533783E0,1.006675974E1
2.173975875E0,8.253386993E0,-5.399272156E0,1.224004669E0,9.938245524E0
2.183998875E0,8.086783447E0,-5.381309509E0,8.827143860E-1,9.753652815E0
2.194020875E0,7.911348267E0,-5.280419312E0,5.637277222E-1,9.528381208E0
2.204043875E0,7.859256592E0,-5.231920166E0,3.529660034E-1,9.448041480E0
2.214066875E0,7.963140564E0,-5.249733124E0,1.347198486E-1,9.538839287E0
2.224088875E0,8.043673096E0,-5.303621063E0,-4.939727783E-3,9.634785813E0
2.234111875E0,8.093220062E0,-5.404960327E0,-1.591191101E-1,9.733402591E0
2.244134875E0,8.072712708E0,-5.461542664E0,-3.429368591E-1,9.752678833E0
2.254156875E0,7.947423248E0,-5.490432587E0,-6.973997498E-1,9.684665853E0
2.264179875E0,7.720644836E0,-5.466632080E0,-1.027762756E0,9.515709079E0
2.274202875E0,7.341183929E0,-5.500012665E0,-1.325194244E0,9.268185399E0
2.284224875E0,7.011269989E0,-5.687422943E0,-1.672322388E0,9.181576595E0
2.294247875E0,6.863527222E0,-5.818550262E0,-1.984123993E0,9.214134854E0
2.304270875E0,6.586902466E0,-5.785469055E0,-2.254162445E0,9.052081783E0
2.314292875E0,6.358178101E0,-5.737119598E0,-2.592758331E0,8.947813465E0
2.324315875E0,6.228098602E0,-5.660778351E0,-2.957400055E0,8.920753265E0
2.334338875E0,6.243965607E0,-5.516328735E0,-3.429667969E0,9.009972896E0
2.344360875E0,6.324947205E0,-5.261558533E0,-3.853736115E0,9.085165787E0
2.354383875E0,6.170318756E0,-5.064119110E0,-4.037254486E0,8.945253473E0
2.364406875E0,6.416556702E0,-4.960833893E0,-4.256698151E0,9.159779035E0
2.374428875E0,6.480773163E0,-5.028792572E0,-4.296066284E0,9.259879105E0
2.384451875E0,5.749543762E0,-5.596262512E0,-4.014651489E0,8.971779877E0
2.394474875E0,6.287674713E0,-5.674849091E0,-3.835324402E0,9.297767408E0
2.404496875E0,7.311844940E0,-5.157375183E0,-3.933669891E0,9.774218845E0
2.414519875E0,7.517517242E0,-4.938679962E0,-3.755989380E0,9.747362796E0
2.424542875E0,8.070916443E0,-4.706063690E0,-3.955374756E0,1.014552695E1
2.434564875E0,8.999136200E0,-4.173920288E0,-4.171674957E0,1.076145598E1
2.444587875E0,1.042626846E1,-3.635190582E0,-4.437073059E0,1.189997067E1
2.454610875E0,1.177646072E1,-3.047961731E0,-4.798271942E0,1.307663992E1
2.464632875E0,1.261232254E1,-2.655926971E0,-5.503455505E0,1.401472977E1
2.474655875E0,1.334474945E1,-2.367925873E0,-5.650150452E0,1.468378735E1
2.484678875E0,1.231099915E1,-2.800975342E0,-4.558769989E0,1.342343274E1
2.494700875E0,9.003926239E0,-3.808829498E0,-3.270249481E0,1.030885064E1
2.504723875E0,7.512278137E0,-4.157753906E0,-3.385360107E0,9.229404283E0
2.514746875E0,6.618187408E0,-4.448898468E0,-3.256627808E0,8.613868285E0
2.524768875E0,7.637118530E0,-4.961432648E0,-2.108215942E0,9.348046204E0
2.534791875E0,8.667425995E0,-4.793781281E0,-7.716453552E-1,9.934789826E0
2.544814875E0,9.461674347E0,-4.430935822E0,1.582209778E-1,1.044899553E1
2.554836875E0,9.808952179E0,-4.236490173E0,9.261241150E-1,1.072478894E1
2.564859875E0,9.863588562E0,-3.988905029E0,1.337618408E0,1.072338406E1
2.574882875E0,9.670041046E0,-3.573967896E0,1.335223389E0,1.039546833E1
2.584904875E0,8.426127777E0,-3.083288269E0,8.473878479E-1,9.012455938E0
2.594928333E0,8.687933350E0,-3.047812042E0,1.170565796E-1,9.207770978E0
2.604951333E0,8.836723938E0,-3.083887024E0,2.224374390E-1,9.362025825E0
2.614973333E0,8.560548248E0,-2.990481262E0,5.029541016E-2,9.067992839E0
2.624996333E0,8.310867462E0,-2.927462311E0,-1.567240906E-1,8.812781399E0
2.635019333E0,8.058941345E0,-2.959944763E0,-2.697390747E-1,8.589561559E0
2.645041333E0,8.016130371E0,-3.094963989E0,-4.764591980E-1,8.606053776E0
2.655064333E0,7.813451843E0,-3.141068115E0,-5.043013000E-1,8.436270409E0
2.665087333E0,7.655081177E0,-3.086731110E0,-5.060975647E-1,8.269480728E0
2.675109333E0,7.607031097E0,-3.010240173E0,-5.806425476E-1,8.201561668E0
2.685132333E0,7.648943939E0,-2.965034180E0,-6.001020813E-1,8.225441847E0
2.695155333E0,7.745942230E0,-2.967129822E0,-5.942642212E-1,8.316046559E0
2.705178333E0,7.791297913E0,-2.988684998E0,-5.848338318E-1,8.365320782E0
2.715200333E0,7.902366943E0,-3.061882782E0,-6.382727051E-1,8.498818831E0
2.725223333E0,7.992180176E0,-3.106639709E0,-6.764433289E-1,8.601379530E0
2.735245333E0,7.907156982E0,-3.114423523E0,-6.294410706E-1,8.521675979E0
2.745268333E0,8.069269867E0,-3.212619324E0,-8.173004150E-1,8.723647120E0
2.755291333E0,8.086783447E0,-3.309018860E0,-8.089178467E-1,8.774965551E0
2.765314333E0,8.062683563E0,-3.294349365E0,-6.767427063E-1,8.735993628E0
2.775336333E0,8.152945862E0,-3.255280609E0,-5.801934814E-1,8.797954452E0
2.785359333E0,8.332572327E0,-3.236120453E0,-5.197192383E-1,8.954012802E0
2.795381333E0,8.614436188E0,-3.247496796E0,-4.662803650E-1,9.218034696E0
2.805404333E0,8.907227325E0,-3.295546875E0,-5.435197449E-1,9.512872413E0
2.815427333E0,9.155710602E0,-3.385210419E0,-6.644682312E-1,9.784079120E0
2.825450333E0,9.382788391E0,-3.554508362E0,-8.036787415E-1,1.006564192E1
2.835472333E0,9.557026062E0,-3.711831207E0,-9.270222473E-1,1.029435808E1
2.845495333E0,9.764344940E0,-3.847149811E0,-1.098415833E0,1.055222778E1
2.855518333E0,9.978998566E0,-3.923790436E0,-1.349892883E0,1.080734725E1
2.865540333E0,1.010204269E1,-3.930825806E0,-1.546733551E0,1.094965948E1
2.875563333E0,1.011207184E1,-3.874542847E0,-1.791175232E0,1.097608254E1
2.885586333E0,1.020951920E1,-3.748055878E0,-2.139500885E0,1.108420810E1
2.895608333E0,1.026520340E1,-3.630400543E0,-2.427951050E0,1.115567816E1
2.905631333E0,1.019499939E1,-3.611240387E0,-2.638862457E0,1.113295400E1
2.915654333E0,1.005084915E1,-3.648961945E0,-2.803969116E0,1.105426319E1
2.925676333E0,9.883946228E0,-3.691174164E0,-2.826721802E0,1.092279799E1
2.935699333E0,9.648336182E0,-3.776496735E0,-2.690954132E0,1.070483782E1
2.945722333E0,9.461075592E0,-3.894301758E0,-2.477647705E0,1.052693097E1
2.955744333E0,9.449549561E0,-3.977678375E0,-2.261796570E0,1.049912548E1
2.965767333E0,9.384285278E0,-4.034111023E0,-2.052980804E0,1.041890551E1
2.975790333E0,9.232201538E0,-4.044738922E0,-1.846410370E0,1.024708200E1
2.985812333E0,9.094038849E0,-4.027524719E0,-1.674717407E0,1.008598911E1
2.995835333E0,8.922495575E0,-3.939358063E0,-1.508862305E0,9.869454630E0
3.005858333E0,8.715925140E0,-3.802243195E0,-1.419797516E0,9.614584201E0
3.015880333E0,8.521928558E0,-3.648512878E0,-1.310973816E0,9.362348259E0
3.025903333E0,8.414601746E0,-3.496578827E0,-1.256038055E0,9.198326893E0
3.035926333E0,8.413553925E0,-3.352727966E0,-1.275198212E0,9.146300068E0
3.045948333E0,8.403674469E0,-3.229683838E0,-1.288071442E0,9.094598964E0
3.055971333E0,8.359216919E0,-3.163970490E0,-1.352437592E0,9.039707086E0
3.065994333E0,8.291407928E0,-3.104693756E0,-1.453776855E0,8.972181223E0
3.076016333E0,8.217910767E0,-3.081791382E0,-1.507664795E0,8.905310136E0
3.086039333E0,8.183632050E0,-3.061733093E0,-1.578766937E0,8.879107393E0
3.096062333E0,8.167166290E0,-3.094215546E0,-1.609303436E0,8.880688746E0
3.106084333E0,8.232430573E0,-3.197351074E0,-1.687141571E0,8.991240943E0
3.116107333E0,8.364605713E0,-3.296744385E0,-1.755699005E0,9.160656705E0
3.126130333E0,8.397088165E0,-3.362457733E0,-1.776954803E0,9.218176611E0
3.136152333E0,8.353079681E0,-3.391347656E0,-1.788780212E0,9.191023541E0
3.146175333E0,8.306676178E0,-3.476370850E0,-1.827998657E0,9.188449407E0
3.156198333E0,8.315058746E0,-3.634142761E0,-1.805245972E0,9.252356920E0
3.166220333E0,8.333320770E0,-3.890409851E0,-1.766626282E0,9.364854099E0
3.176243333E0,8.395441589E0,-4.252955933E0,-1.623972931E0,9.550306892E0
3.186266333E0,8.484506378E0,-4.664300537E0,-1.346450043E0,9.775248114E0
3.196288333E0,8.618328094E0,-5.038522339E0,-9.888436890E-1,1.003195386E1
3.206311333E0,8.779243469E0,-5.376369781E0,-4.927752686E-1,1.030646862E1
3.216334333E0,8.999136200E0,-5.581742706E0,5.433700562E-2,1.058977131E1
3.226356333E0,9.247918854E0,-5.586083679E0,5.107379150E-1,1.081615399E1
3.236379333E0,9.539362793E0,-5.465883636E0,8.470884705E-1,1.102691640E1
3.246402333E0,9.651180267E0,-5.278024292E0,1.273851013E0,1.107364066E1
3.256424333E0,1.009141479E1,-5.173691254E0,1.397194519E0,1.142610547E1
3.266447333E0,1.061053528E1,-5.189408569E0,1.428180084E0,1.189760978E1
3.276470333E0,1.068148773E1,-5.235662384E0,1.607806549E0,1.200380701E1
3.286492333E0,1.069915100E1,-5.203030243E0,1.764081573E0,1.202727482E1
3.296515333E0,1.070304291E1,-5.152734833E0,1.842069397E0,1.202077466E1
3.306538333E0,1.054736664E1,-5.176984406E0,1.876198425E0,1.189824487E1
3.316560333E0,1.056398209E1,-5.178181915E0,1.839824066E0,1.190782256E1
3.326583333E0,1.053838531E1,-5.112767944E0,1.757794647E0,1.184431522E1
3.336606333E0,1.045321243E1,-5.008434906E0,1.668729858E0,1.171062465E1
3.346628333E0,1.037193146E1,-4.837041321E0,1.609752502E0,1.155704262E1
3.356651333E0,1.022703278E1,-4.709805908E0,1.403481445E0,1.134655151E1
3.366674333E0,1.008108627E1,-4.655768280E0,1.130000153E0,1.116160289E1
3.376696333E0,9.853260040E0,-4.654870148E0,8.646020508E-1,1.093170098E1
3.386719333E0,9.613458710E0,-4.652624817E0,6.237528992E-1,1.069834444E1
3.396742333E0,9.304501190E0,-4.646637268E0,4.043092346E-1,1.040809523E1
3.406764333E0,8.972491608E0,-4.621040497E0,2.079176331E-1,1.009469418E1
3.416787333E0,8.664432220E0,-4.583618317E0,7.394622803E-2,9.802418611E0
3.426810333E0,8.367449799E0,-4.519102478E0,4.206253052E-2,9.509903921E0
3.436832333E0,8.134234772E0,-4.431534576E0,9.535171509E-2,9.263550398E0
3.446855333E0,7.928412781E0,-4.314927063E0,2.874023438E-1,9.031108730E0
3.456878333E0,7.787705383E0,-4.201163635E0,5.968089294E-1,8.868726624E0
3.466900333E0,7.599846039E0,-4.077670441E0,8.523275757E-1,8.666690160E0
3.476923333E0,7.404801636E0,-3.914360046E0,1.114582214E0,8.449591431E0
3.486946333E0,7.215894470E0,-3.784879303E0,1.389560394E0,8.265913285E0
3.496968333E0,7.017257538E0,-3.748654633E0,1.603016510E0,8.115662440E0
3.506991333E0,6.777007141E0,-3.759731598E0,1.650318146E0,7.923822150E0
3.517014333E0,6.573729858E0,-3.826043701E0,1.667232971E0,7.786668122E0
3.527036333E0,6.479425964E0,-3.924987946E0,1.698667603E0,7.763630776E0
3.537059333E0,6.469247131E0,-4.039649506E0,1.709594879E0,7.816178173E0
3.547082333E0,6.596632233E0,-4.185446320E0,1.778900757E0,8.012365794E0
3.557104333E0,6.774612122E0,-4.206402740E0,1.838476868E0,8.183470572E0
3.567127333E0,7.076085205E0,-4.147724762E0,1.829196167E0,8.403604057E0
3.577150333E0,7.478448486E0,-4.186643829E0,1.881138153E0,8.774614468E0
3.587172333E0,7.762407990E0,-4.309089203E0,2.035616913E0,9.108620300E0
3.597195250E0,7.973020020E0,-4.303101654E0,2.178569641E0,9.318363470E0
3.607218250E0,8.129893799E0,-4.311035156E0,2.318827972E0,9.489845123E0
3.617240250E0,8.256829834E0,-4.419858856E0,2.414628754E0,9.671650492E0
3.627263250E0,8.358318787E0,-4.543801117E0,2.553839264E0,9.850366314E0
3.637286250E0,8.553662567E0,-4.703968048E0,2.654430084E0,1.011624722E1
3.647308250E0,8.712781677E0,-4.872667236E0,2.762655029E0,1.035797825E1
3.657331250E0,8.875343628E0,-5.132676544E0,2.969075775E0,1.067387015E1
3.667354250E0,9.012757874E0,-5.413642273E0,3.369942169E0,1.104055421E1
3.677376250E0,9.447902985E0,-5.126389618E0,3.976780243E0,1.146113094E1
3.687399250E0,9.724228363E0,-4.678820343E0,4.356540527E0,1.163750069E1
3.697422250E0,9.524393921E0,-4.685855713E0,4.336482239E0,1.146631595E1
3.707444250E0,9.523795166E0,-4.713847504E0,4.230802002E0,1.143777593E1
3.717467250E0,9.445807343E0,-4.641847229E0,4.027674408E0,1.126908085E1
3.727490250E0,9.504635010E0,-4.594246216E0,3.762425995E0,1.120718673E1
3.737512250E0,9.554481354E0,-4.659061432E0,3.435805206E0,1.117137972E1
3.747535250E0,9.485474854E0,-4.843777313E0,3.170407104E0,1.111251066E1
3.757558250E0,9.561516724E0,-5.105283508E0,3.040028229E0,1.125736618E1
3.767580250E0,9.923613739E0,-5.437143402E0,3.062182159E0,1.172252522E1
3.777603250E0,1.012255005E1,-5.698499908E0,3.147654419E0,1.203522534E1
3.787626250E0,1.012120285E1,-5.675597534E0,3.122506714E0,1.201670515E1
3.797648250E0,1.018781433E1,-5.480104065E0,2.873125305E0,1.191964557E1
3.807671250E0,1.022987686E1,-5.081782379E0,2.563119965E0,1.170659971E1
3.817694250E0,1.028047165E1,-4.574636993E0,2.198627930E0,1.146513697E1
3.827716250E0,1.030606842E1,-4.133953400E0,1.862576752E0,1.125938760E1
3.837739250E0,1.039603134E1,-3.784729614E0,1.680704956E0,1.119046090E1
3.847762250E0,1.050335815E1,-3.472029877E0,1.582658844E0,1.117498694E1
3.857784250E0,1.047162415E1,-3.173101501E0,1.437909851E0,1.103589915E1
3.867807250E0,1.036923706E1,-2.919379120E0,1.337768097E0,1.085511286E1
3.877830250E0,1.018751495E1,-2.747536469E0,1.225800934E0,1.062247643E1
3.887852250E0,1.002749771E1,-2.623893585E0,1.172212372E0,1.043118448E1
3.897875250E0,9.826615448E0,-2.556383972E0,1.157842255E0,1.021949455E1
3.907898250E0,9.496701508E0,-2.485880585E0,1.204395447E0,9.890273515E0
3.917920250E0,9.499395905E0,-2.394570465E0,1.128203888E0,9.861304897E0
3.927943250E0,9.298363953E0,-2.298021240E0,1.276545410E0,9.662817498E0
3.937966250E0,9.149423676E0,-2.152823181E0,1.290316772E0,9.487440046E0
3.947988250E0,8.915011139E0,-2.030078430E0,1.227297821E0,9.225231812E0
3.958011250E0,8.737031250E0,-1.934726715E0,1.109792175E0,9.017234676E0
3.968034250E0,8.778794403E0,-1.916913757E0,1.091230774E0,9.051661401E0
3.978056250E0,8.922645264E0,-1.929936676E0,1.123114471E0,9.197806271E0
3.988079250E0,8.960666199E0,-2.015408936E0,1.172212372E0,9.259022289E0
3.998102250E0,9.086255035E0,-2.295326843E0,1.227746887E0,9.451767999E0
4.008124250E0,9.322463837E0,-2.737956390E0,1.327738953E0,9.806509466E0
4.018147250E0,9.664053497E0,-3.174748077E0,1.393003235E0,1.026710346E1
4.028170250E0,9.971514130E0,-3.538491669E0,1.413510590E0,1.067473791E1
4.038192250E0,1.029588959E1,-3.887416077E0,1.411714325E0,1.109550736E1
4.048215250E0,1.077115128E1,-4.299359436E0,1.459764404E0,1.168901636E1
4.058238250E0,1.119956039E1,-4.735552368E0,1.574575653E0,1.226111323E1
4.068260250E0,1.163665146E1,-5.105732574E0,1.713337097E0,1.282246803E1
4.078283250E0,1.202644089E1,-5.476810913E0,1.892963562E0,1.334968349E1
4.088306250E0,1.235635483E1,-5.807622986E0,2.176923065E0,1.382559161E1
4.098328250E0,1.259510834E1,-5.971981201E0,2.401905212E0,1.414462662E1
4.108351250E0,1.263866776E1,-5.836063843E0,2.481389923E0,1.414046887E1
4.118374250E0,1.233554810E1,-5.492378540E0,2.369871826E0,1.370942236E1
4.128396250E0,1.195054871E1,-5.279970245E0,1.968107300E0,1.321238610E1
4.138419250E0,1.165521286E1,-5.366190948E0,1.434916077E0,1.291119577E1
4.148442250E0,1.120015915E1,-5.557193756E0,9.741741943E-1,1.254093229E1
4.158464250E0,1.056727524E1,-5.762716370E0,5.923182678E-1,1.205101850E1
4.168487250E0,9.866282959E0,-5.962251434E0,3.412902832E-1,1.153292940E1
4.178510250E0,9.246571655E0,-6.202651520E0,1.800755310E-1,1.113572631E1
4.188532250E0,8.788374481E0,-6.381679230E0,1.710942078E-1,1.086234915E1
4.198555250E0,8.518336029E0,-6.606661377E0,2.989283752E-1,1.078421909E1
4.208578250E0,8.082292786E0,-6.740932159E0,3.653901672E-1,1.053077077E1
4.218600250E0,7.648494873E0,-6.706503754E0,3.329077148E-1,1.017779416E1
4.228623250E0,7.273524628E0,-6.576723633E0,2.239343262E-1,9.808547336E0
4.238646250E0,6.948251038E0,-6.236630859E0,4.131408691E-2,9.336780163E0
4.248668250E0,6.605613556E0,-5.826633453E0,-4.559518433E-1,8.819959180E0
4.258691250E0,6.187832336E0,-5.431305542E0,-9.541159058E-1,8.288467052E0
4.268714250E0,5.592819672E0,-4.975503387E0,-1.369951172E0,7.609995536E0
4.278736250E0,5.139711914E0,-4.556374969E0,-1.707199860E0,7.077550620E0
4.288759250E0,5.066813507E0,-4.213737488E0,-2.004781036E0,6.888202214E0
4.298782250E0,5.057083740E0,-3.812422028E0,-2.332599335E0,6.749050106E0
4.308804250E0,4.987328796E0,-3.435954895E0,-2.538870392E0,6.566970187E0
4.318827250E0,4.826862488E0,-3.138822784E0,-2.821033630E0,6.411633231E0
4.328850250E0,4.747078400E0,-2.953358459E0,-3.039130096E0,6.363441778E0
4.338872250E0,4.756508789E0,-2.873274994E0,-3.021915894E0,6.325508732E0
4.348895250E0,4.889282684E0,-2.860701141E0,-2.822380829E0,6.328864806E0
4.358918250E0,5.103038177E0,-2.981649628E0,-2.536325684E0,6.431499134E0
4.368940250E0,5.365891571E0,-3.143463135E0,-2.201921082E0,6.597166762E0
4.378963250E0,5.597759399E0,-3.213218079E0,-1.906884613E0,6.730222109E0
4.388986250E0,5.820047150E0,-3.198847961E0,-1.659149780E0,6.845316289E0
4.399008250E0,6.054459686E0,-3.136128387E0,-1.499282227E0,6.981377411E0
4.409031250E0,6.244714050E0,-3.075354767E0,-1.416504364E0,7.103572701E0
4.419054250E0,6.506519623E0,-3.078647919E0,-1.347647552E0,7.323184044E0
4.429076250E0,6.796466675E0,-3.138373718E0,-1.276246033E0,7.594086699E0
4.439099250E0,7.107968903E0,-3.220253448E0,-1.133442993E0,7.885299437E0
4.449122250E0,7.395970001E0,-3.379222870E0,-9.526190186E-1,8.187002043E0
4.459144250E0,7.761809235E0,-3.581152954E0,-6.665638733E-1,8.574068257E0
4.469167250E0,8.211773529E0,-3.710783386E0,-3.998185730E-1,9.020143720E0
4.479190250E0,8.797056427E0,-3.787274323E0,-1.612147522E-1,9.579020763E0
4.489212250E0,9.414821777E0,-3.836072845E0,-1.691482544E-2,1.016634694E1
4.499235250E0,9.947713623E0,-3.859873352E0,4.730163574E-2,1.067042014E1
4.509258250E0,1.052775742E1,-3.897445221E0,7.649093628E-2,1.122629085E1
4.519280250E0,1.116992203E1,-3.799249420E0,1.945953369E-3,1.179836675E1
4.529303250E0,1.172631500E1,-3.679498444E0,-1.423539734E-1,1.229086803E1
4.539326250E0,1.200323914E1,-3.653153229E0,-2.010319519E-1,1.254845377E1
4.549348250E0,1.222777222E1,-3.826193390E0,-1.193019104E-1,1.281297788E1
4.559371250E0,1.270288422E1,-4.096830597E0,-2.222877502E-1,1.334903368E1
4.569394250E0,1.274449768E1,-4.398153992E0,-7.768844604E-2,1.348228524E1
4.579416250E0,1.307291473E1,-4.695585480E0,9.235794067E-2,1.389093779E1
4.589439250E0,1.338411758E1,-4.897515564E0,2.730322266E-1,1.425464166E1
4.599462125E0,1.353320755E1,-4.967270508E0,3.745211792E-1,1.442087893E1
4.609484125E0,1.360745316E1,-4.901557159E0,4.619393921E-1,1.447070945E1
4.619507125E0,1.343156891E1,-4.791985016E0,5.218148804E-1,1.427033477E1
4.629530125E0,1.315793793E1,-4.730912018E0,5.474116516E-1,1.399330263E1
4.639552125E0,1.289912613E1,-4.731959839E0,4.629872131E-1,1.374748180E1
4.649575125E0,1.253598129E1,-4.600383453E0,2.615061951E-1,1.335600016E1
4.659598125E0,1.203497314E1,-4.405189362E0,-1.847158813E-1,1.281719126E1
4.669620125E0,1.153142029E1,-4.214186554E0,-7.515870667E-1,1.230032135E1
4.679643125E0,1.098924774E1,-4.007316742E0,-1.351689148E0,1.177494021E1
4.689666125E0,1.059152481E1,-3.799399109E0,-1.897903290E0,1.141130441E1
4.699688125E0,1.034274216E1,-3.641926575E0,-2.401905212E0,1.122519902E1
4.709711125E0,1.012644196E1,-3.552712097E0,-2.775677948E0,1.108471822E1
4.719734125E0,9.790241089E0,-3.522624664E0,-3.009791107E0,1.083127636E1
4.729756125E0,9.554930420E0,-3.505260773E0,-3.285517731E0,1.069477326E1
4.739779125E0,9.507778473E0,-3.543431396E0,-3.510499878E0,1.073672981E1
4.749802125E0,9.442514191E0,-3.689826965E0,-3.754193115E0,1.081063658E1
4.759824125E0,9.250762939E0,-3.855083313E0,-3.929478607E0,1.076471479E1
4.769847125E0,9.026678925E0,-3.967200165E0,-3.913012848E0,1.060807613E1
4.779870125E0,8.811875610E0,-4.141437836E0,-3.754941559E0,1.043552803E1
4.789892125E0,8.679401093E0,-4.409230957E0,-3.539539490E0,1.035865149E1
4.799915125E0,8.152496796E0,-4.801415405E0,-3.762425995E0,1.018197639E1
4.809938125E0,8.016579437E0,-5.143454132E0,-3.843108215E0,1.027083965E1
4.819960125E0,8.323890381E0,-5.211712189E0,-3.105442200E0,1.030013914E1
4.829983125E0,8.530161438E0,-5.201832733E0,-2.192640381E0,1.022889973E1
4.840006125E0,8.668174438E0,-5.244494019E0,-1.385369110E0,1.022551775E1
4.850028125E0,8.541837158E0,-5.466332703E0,-8.059240723E-1,1.017316513E1
4.860051125E0,8.429869995E0,-5.663622437E0,-5.706134033E-1,1.017177108E1
4.870074125E0,8.301137695E0,-5.668562164E0,-3.388952637E-1,1.005765052E1
4.880096125E0,8.204887848E0,-5.653144226E0,-1.463955688E-1,9.964921269E0
4.890119125E0,8.161478119E0,-5.697601776E0,-5.239105225E-2,9.953649376E0
4.900142125E0,8.148155823E0,-5.727988586E0,-3.248245239E-2,9.960087935E0
4.910164125E0,8.092621307E0,-5.712420959E0,-6.227050781E-2,9.905864448E0
4.920187125E0,8.108338623E0,-5.674699402E0,-1.417552185E-1,9.897851437E0
4.930210125E0,8.077053680E0,-5.641767883E0,-2.130070496E-1,9.854629014E0
4.940232125E0,8.081244965E0,-5.608237610E0,-3.564088440E-1,9.843062355E0
4.950255125E0,8.119714966E0,-5.585035858E0,-5.057981873E-1,9.868040761E0
4.960278125E0,8.110733643E0,-5.593568115E0,-6.363267517E-1,9.873039867E0
4.970300125E0,8.041278076E0,-5.595663757E0,-7.887098694E-1,9.828309582E0
4.980323125E0,7.932903442E0,-5.593717804E0,-9.189390564E-1,9.750132557E0
4.990346125E0,7.851023712E0,-5.518574066E0,-1.039737854E0,9.652682936E0
5.000368125E0,7.832462311E0,-5.409301300E0,-1.110390930E0,9.583369680E0
5.010391125E0,7.762857056E0,-5.246889038E0,-1.181193695E0,9.443887589E0
5.020414125E0,7.691904602E0,-5.064418488E0,-1.297202454E0,9.300347587E0
5.030436125E0,7.712411957E0,-4.979095917E0,-1.338366852E0,9.277064200E0
5.040459125E0,7.727231140E0,-4.990172882E0,-1.257085876E0,9.283974978E0
5.050482125E0,7.752528534E0,-4.996310120E0,-1.064586182E0,9.284296269E0
5.060504125E0,7.721093903E0,-4.950205994E0,-9.186396790E-1,9.217577192E0
5.070527125E0,7.655829620E0,-5.010530548E0,-7.926017761E-1,9.183973058E0
5.080550125E0,7.574698334E0,-5.119503937E0,-6.312373352E-1,9.164269528E0
5.090572125E0,7.574548645E0,-5.240302734E0,-5.830375671E-1,9.229002802E0
5.100595125E0,7.513625336E0,-5.319338379E0,-6.039939880E-1,9.225764749E0
5.110618125E0,7.381599884E0,-5.337750092E0,-6.391708374E-1,9.131710259E0
5.120640125E0,7.322472839E0,-5.335804138E0,-6.936575317E-1,9.086835261E0
5.130663125E0,7.278913422E0,-5.329517212E0,-7.253915405E-1,9.050553972E0
5.140686125E0,7.290738831E0,-5.278473358E0,-7.179071045E-1,9.029537325E0
5.150708125E0,7.251071320E0,-5.198389893E0,-7.969427490E-1,8.957477910E0
5.160731125E0,7.199279022E0,-5.117258606E0,-9.449848938E-1,8.883071008E0
5.170754125E0,7.100185089E0,-5.072651367E0,-1.048569489E0,8.788851925E0
5.180776125E0,7.058871002E0,-5.055137787E0,-1.122815094E0,8.754586889E0
5.190799125E0,7.030430145E0,-5.052144012E0,-1.167721710E0,8.735827445E0
5.200822125E0,6.944508820E0,-5.035079498E0,-1.180594940E0,8.658639195E0
5.210844125E0,6.956184540E0,-4.973707123E0,-1.228794708E0,8.639224637E0
5.220867125E0,7.125183105E0,-4.849764862E0,-1.357077942E0,8.725257248E0
5.230890125E0,7.230414276E0,-4.588258667E0,-1.468446350E0,8.688345233E0
5.240912125E0,7.294031982E0,-4.297563171E0,-1.657652893E0,8.626689103E0
5.250935125E0,7.264393616E0,-4.090543671E0,-2.013612671E0,8.576630930E0
5.260957125E0,7.215445404E0,-3.936963043E0,-2.378254395E0,8.556776516E0
5.270980125E0,7.382797394E0,-3.764521637E0,-2.489024048E0,8.652893229E0
5.281003125E0,7.661068726E0,-3.577111359E0,-2.404749298E0,8.790365116E0
5.291026125E0,8.034242706E0,-3.486250305E0,-2.221380615E0,9.035348853E0
5.301048125E0,8.471333771E0,-3.380270691E0,-2.086361389E0,9.356421840E0
5.311071125E0,8.968599701E0,-3.210373993E0,-2.037413177E0,9.741320969E0
5.321094125E0,9.333091736E0,-2.967129822E0,-2.011217651E0,9.997772610E0
5.331116125E0,9.706864471E0,-2.746488647E0,-1.758393402E0,1.024003736E1
5.341139125E0,1.002001328E1,-2.608325958E0,-1.423090668E0,1.045127827E1
5.351162125E0,1.022059616E1,-2.578537903E0,-1.174757080E0,1.060610663E1
5.361184125E0,1.044872177E1,-2.588267670E0,-1.144070892E0,1.082514731E1
5.371207125E0,1.055440201E1,-2.592309265E0,-1.035995636E0,1.091736031E1
5.381230125E0,1.035366943E1,-2.497705994E0,-1.207239532E0,1.071888209E1
5.391252125E0,1.021685394E1,-2.393971710E0,-1.261426849E0,1.056912497E1
5.401275125E0,1.027418472E1,-2.418520660E0,-1.227297821E0,1.062611753E1
5.411298125E0,1.060275146E1,-2.761158142E0,-9.355545044E-1,1.099625369E1
5.421320125E0,1.076860657E1,-3.330424347E0,-7.316784668E-1,1.129557290E1
5.431343125E0,1.050919601E1,-3.483555908E0,-5.372328186E-1,1.108453796E1
5.441366125E0,1.022433838E1,-3.107986908E0,-4.146377563E-2,1.068636501E1
5.451388125E0,1.026430527E1,-2.756817169E0,2.489323425E-1,1.063099106E1
5.461411125E0,1.039588165E1,-2.491568756E0,2.393522644E-1,1.069296777E1
5.471433125E0,1.034858002E1,-2.211351471E0,-0.000000000E0,1.058221072E1
5.481456125E0,1.038211029E1,-1.902992706E0,-3.272195435E-1,1.056014526E1
5.491479125E0,1.040142014E1,-1.598974915E0,-4.971162415E-1,1.053533987E1
5.501502125E0,1.010877869E1,-1.467847595E0,-6.010002136E-1,1.023245740E1
5.511524125E0,9.602531433E0,-1.424437866E0,-5.724096680E-1,9.724468417E0
5.521547125E0,9.077722778E0,-1.351240082E0,-6.201603699E-1,9.198668354E0
5.531570125E0,8.650960236E0,-1.257085876E0,-7.089257812E-1,8.770516157E0
5.541592125E0,8.321195984E0,-1.158291321E0,-8.132588196E-1,8.440694953E0
5.551615125E0,8.063282318E0,-1.076261902E0,-1.171463928E0,8.218709702E0
5.561637125E0,7.890840912E0,-1.007854156E0,-1.647923126E0,8.123840897E0
5.571660125E0,7.517666931E0,-9.074130249E-1,-1.801204376E0,7.783511527E0
5.581683125E0,6.775659943E0,-3.972738647E-1,-2.040257263E0,7.087315704E0
5.591705125E0,5.775739288E0,9.370513916E-2,-1.806742859E0,6.052459396E0
5.601727958E0,5.052742767E0,1.450483704E-1,-1.189127197E0,5.192809644E0
5.611750958E0,5.349425812E0,-1.889071655E-1,-9.363029480E-1,5.434032172E0
5.621773958E0,5.917195129E0,-6.646179199E-1,-1.094972992E0,6.054244877E0
5.631795958E0,6.612798615E0,-6.779402161E-1,-1.454824677E0,6.804794140E0
5.641818958E0,7.563471680E0,-3.204835510E-1,-1.787133636E0,7.778345595E0
5.651840958E0,8.649613037E0,-2.993774414E-3,-2.156266022E0,8.914331036E0
5.661863958E0,9.933642883E0,1.621128845E-1,-2.705174561E0,1.029667475E1
5.671886958E0,1.134341125E1,5.984555054E-1,-3.473975830E0,1.187853678E1
5.681909958E0,1.214379684E1,1.035995636E0,-3.951632538E0,1.281251296E1
5.691931958E0,1.298504745E1,1.231339417E0,-4.329147491E0,1.374296810E1
5.701954958E0,1.400757111E1,9.548643494E-1,-4.448299713E0,1.472790496E1
5.711976958E0,1.600097580E1,3.281176758E-1,-3.963008881E0,1.648770230E1
5.721999958E0,1.874611725E1,1.149609375E-1,-2.630030823E0,1.893006049E1
5.732022958E0,2.181997513E1,1.038091278E0,-8.692424011E-1,2.186194251E1
5.742044958E0,2.554168579E1,2.187401276E0,-2.809657288E-1,2.563671935E1
5.752067958E0,2.910742081E1,3.035836945E0,-4.219725037E-1,2.926835002E1
5.762090958E0,3.179044144E1,2.957849121E0,-1.799557800E0,3.197842158E1
5.772112958E0,3.335573639E1,2.296075287E0,-3.109184418E0,3.357892404E1
5.782135958E0,3.279066147E1,1.855541382E0,-2.926115112E0,3.297321129E1
5.792158958E0,3.078827545E1,1.780397644E0,-1.238674164E0,3.086457573E1
5.802180958E0,2.820210342E1,1.174008636E0,6.631210327E-1,2.823431712E1
5.812203958E0,2.492856079E1,5.388793945E-2,1.873354340E0,2.499891005E1
5.822226958E0,2.107946503E1,-6.557862854E-1,2.480192413E0,2.123500073E1
5.832248958E0,1.699445984E1,-8.291258240E-1,2.735561371E0,1.723317762E1
5.842271958E0,1.331660797E1,-9.319619751E-1,3.189866638E0,1.372500820E1
5.852294958E0,1.045201492E1,-1.150657196E0,3.452420654E0,1.106742230E1
5.862316958E0,8.328231354E0,-1.271306305E0,3.538940735E0,9.137820239E0
5.872339958E0,7.079078979E0,-1.204096069E0,3.623215485E0,8.043065149E0
5.882362958E0,6.366261292E0,-1.340612183E0,3.703149261E0,7.485976109E0
5.892385958E0,5.997428284E0,-1.510209503E0,3.617377625E0,7.164865640E0
5.902407958E0,5.310506744E0,-1.546284485E0,3.062182159E0,6.322138655E0
5.912430958E0,4.422852631E0,-1.594035187E0,2.060016174E0,5.132858873E0
5.922452958E0,3.546874237E0,-1.632355499E0,1.145268402E0,4.068972971E0
5.932475958E0,2.334096222E0,-1.686991882E0,5.929170227E-1,2.940322666E0
5.942498958E0,9.503736877E-1,-1.897005157E0,3.219804382E-1,2.146045227E0
5.952520958E0,-2.561174011E-1,-2.005230103E0,4.062551880E-1,2.061937721E0
5.962543958E0,-9.223818970E-1,-1.936373291E0,5.667214966E-1,2.218446109E0
5.972566958E0,-1.294957123E0,-1.954485626E0,4.676275635E-1,2.390732848E0
5.982588958E0,-1.611848145E0,-1.910926208E0,1.142124939E-1,2.502546285E0
5.992611958E0,-1.953587494E0,-1.520837402E0,-4.430786133E-1,2.515108180E0
6.002634958E0,-1.639241180E0,-8.216413879E-1,-8.009843445E-1,2.000945311E0
6.012656958E0,-2.115700378E0,-1.284927979E0,-5.611830139E-1,2.538139944E0
6.022679958E0,-2.950364685E0,-1.854643250E0,-3.562591553E-1,3.503037816E0
6.032702958E0,-3.183130646E0,-1.649270325E0,-7.634124756E-3,3.585034392E0
6.042724958E0,-3.304827576E0,-1.692979431E0,2.285746765E-1,3.720256852E0
6.052747958E0,-3.637884979E0,-1.808688812E0,6.694079590E-1,4.117483377E0
6.062770958E0,-3.073408813E0,-2.354603577E0,7.629634094E-1,3.946151657E0
6.072792958E0,-3.101101227E0,-2.850372620E0,6.701564026E-1,4.265039565E0
6.082815958E0,-4.417912903E0,-2.010469208E0,1.036744080E0,4.963343544E0
6.092838958E0,-3.639531555E0,-1.970502319E0,4.201762390E-1,4.160002092E0
6.102860958E0,-3.532504120E0,-1.824705505E0,-3.198847961E-1,3.988792025E0
6.112883958E0,-3.218906250E0,-2.016307068E0,-1.428928528E0,4.058163178E0
6.122906958E0,-3.880530396E0,-2.137105865E0,-3.646866302E0,5.738063389E0
6.132928958E0,-4.926405487E0,-2.235151978E0,-5.918093262E0,8.018054829E0
6.142951958E0,-5.023403778E0,-2.425106964E0,-6.641688538E0,8.673393565E0
6.152974958E0,-4.023183746E0,-1.813778229E0,-7.095544739E0,8.355989113E0
6.162996958E0,6.033952332E-1,4.953199768E-1,-7.004833374E0,7.048199648E0
6.173019958E0,1.309027863E1,3.186723175E0,-6.619235229E0,1.501082523E1
6.183042958E0,3.073498627E1,7.558531952E0,-6.599176941E0,3.233140768E1
6.193064958E0,4.768843140E1,1.544503189E1,-5.020410004E0,5.037797153E1
6.203087958E0,5.681330612E1,2.087933121E1,-7.080276489E-2,6.052853242E1
6.213110958E0,5.256499054E1,1.792582306E1,4.655768280E0,5.573230249E1
6.223133958E0,4.170252914E1,1.220921082E1,6.604865112E0,4.395213316E1
6.233155958E0,2.966815475E1,9.215137024E0,7.977211304E0,3.207419613E1
6.243178958E0,2.142599442E1,6.551725616E0,8.445287933E0,2.394412733E1
6.253200958E0,1.639256149E1,4.475543060E0,8.459358673E0,1.898176249E1
6.263223958E0,1.337753128E1,4.007167053E0,8.312813416E0,1.625172600E1
6.273246958E0,1.212239136E1,3.948040009E0,7.146738281E0,1.461558279E1
6.283268958E0,1.142259659E1,3.778742065E0,5.244194641E0,1.312464026E1
6.293291958E0,1.092263626E1,3.957021332E0,3.451672211E0,1.211924262E1
6.303314958E0,1.039408539E1,4.174818420E0,2.160756683E0,1.140767239E1
6.313337958E0,9.303603058E0,3.902834015E0,1.381177826E0,1.018316235E1
6.323359958E0,7.658524017E0,3.138523407E0,1.030756531E0,8.340610189E0
6.333382958E0,5.911207581E0,2.255509644E0,1.014290771E0,6.407689489E0
6.343404958E0,4.460574188E0,1.341210938E0,1.113384705E0,4.789070303E0
6.353427958E0,3.254083099E0,7.840695190E-1,1.251098328E0,3.573383390E0
6.363450958E0,2.347867584E0,5.568420410E-1,9.424401855E-1,2.590511292E0
6.373473958E0,1.553170166E0,4.315525818E-1,3.637435913E-1,1.652538833E0
6.383495958E0,6.230044556E-1,4.369413757E-1,-1.374142456E-1,7.732625637E-1
6.393518958E0,-3.288661194E-1,3.891906738E-1,-2.862048340E-1,5.844103970E-1
6.403541958E0,-9.827064514E-1,2.691403198E-1,-2.874023438E-2,1.019300977E0
6.413563958E0,-1.616039429E0,-6.286926270E-3,3.465293884E-1,1.652787215E0
6.423586958E0,-2.369123383E0,-4.433779907E-1,8.276289368E-1,2.548391513E0
6.433608958E0,-3.078348541E0,-6.174659729E-1,1.482816467E0,3.472209476E0
6.443631958E0,-3.535797272E0,-6.809339905E-1,1.845961304E0,4.046369556E0
6.453654958E0,-3.748954010E0,-1.076112213E0,1.677711182E0,4.245867223E0
6.463677958E0,-4.124373322E0,-1.423988800E0,1.259780273E0,4.541502586E0
6.473699958E0,-4.445605316E0,-1.604064331E0,9.165440369E-1,4.814195881E0
6.483722958E0,-4.466561737E0,-1.696422272E0,4.287084961E-1,4.797062982E0
6.493745958E0,-4.637506256E0,-1.668430481E0,2.161505127E-1,4.933238854E0
6.503767958E0,-4.920717316E0,-1.565444641E0,2.448907471E-1,5.169530666E0
6.513790958E0,-4.733157349E0,-1.508862305E0,2.417472839E-1,4.973719503E0
6.523813958E0,-4.064348145E0,-1.556313629E0,9.011260986E-2,4.353063086E0
6.533835958E0,-3.113974457E0,-1.383722534E0,-3.685336304E-1,3.427439570E0
6.543858958E0,-2.139949951E0,-9.889933777E-1,-8.219407654E-1,2.496613770E0
6.553881958E0,-1.238674164E0,-4.080514526E-1,-1.378333740E0,1.897530915E0
6.563903958E0,-7.454498291E-2,1.808239746E-1,-2.067949677E0,2.077178406E0
6.573926958E0,2.502496033E0,4.354444885E-1,-1.893562317E0,3.168229244E0
6.583949958E0,6.052064667E0,8.384065247E-1,-5.242098999E-1,6.132308558E0
6.593971958E0,1.297112640E1,2.250569916E0,7.650590515E-1,1.318713390E1
6.603994708E0,2.369557480E1,4.939129028E0,9.898915100E-1,2.422509331E1
6.614017708E0,3.590373779E1,8.607101440E0,1.402134247E0,3.694761918E1
6.624039708E0,4.593647461E1,1.284059784E1,2.464774475E0,4.776102769E1
6.634062708E0,4.749144104E1,1.487831039E1,4.888983307E0,5.000703201E1
6.644085708E0,4.322261810E1,1.284329224E1,5.475164337E0,4.542160604E1
6.654107708E0,3.619952271E1,9.452992401E0,4.805906067E0,3.772083300E1
6.664130708E0,2.894096695E1,7.060218201E0,4.885989532E0,3.018773166E1
6.674153708E0,2.402084839E1,5.634433136E0,5.194947052E0,2.521379521E1
6.684175708E0,2.172327621E1,5.231620789E0,5.578898621E0,2.303029951E1
6.694198708E0,2.153466843E1,5.703289948E0,5.711073761E0,2.299751778E1
6.704221708E0,2.207788879E1,6.822512512E0,6.068979492E0,2.389167978E1
6.714243708E0,2.211965195E1,7.489974518E0,6.452182617E0,2.422827648E1
6.724266708E0,2.077604599E1,7.472161560E0,6.583160248E0,2.303942890E1
6.734289708E0,1.830169144E1,7.127129059E0,6.343059540E0,2.063933823E1
6.744311708E0,1.576267136E1,6.503226471E0,5.912704468E0,1.804754379E1
6.754334708E0,1.321466995E1,5.591023407E0,5.604794769E0,1.540456975E1
6.764357708E0,1.080393311E1,4.712949371E0,5.492977295E0,1.300421708E1
6.774379708E0,8.900491333E0,4.113745422E0,5.329666901E0,1.116006257E1
6.784402708E0,7.434739380E0,3.653452606E0,4.896318054E0,9.622733296E0
6.794425708E0,6.136938171E0,3.240012360E0,3.985312500E0,8.002649932E0
6.804447708E0,4.833299103E0,2.450554047E0,3.028352509E0,6.207810747E0
6.814470708E0,3.491938477E0,1.117276611E0,2.185006256E0,4.268043309E0
6.824493708E0,1.924398193E0,1.121617584E0,3.170856171E0,3.875004938E0
6.834515708E0,9.186396790E-1,8.945397949E-1,3.575015717E0,3.798004434E0
6.844538708E0,3.152444458E-1,-1.347198486E-1,3.188070374E0,3.206449938E0
6.854561708E0,-4.568499756E-1,-1.284478912E0,2.672392731E0,3.000046814E0
6.864583708E0,-1.628463593E0,-2.267185364E0,2.184856567E0,3.544802021E0
6.874606708E0,-2.752176819E0,-3.072061615E0,1.441352692E0,4.369157515E0
6.884629708E0,-3.595672760E0,-3.651506653E0,5.839356995E-1,5.157842992E0
6.894651708E0,-4.668641510E0,-3.861220551E0,-3.962260437E-1,6.071427572E0
6.904674708E0,-6.024521942E0,-3.362757111E0,-9.915380859E-1,6.970376446E0
6.914697708E0,-6.839427338E0,-2.459086304E0,-1.206940155E0,7.367603158E0
6.924719708E0,-6.440357208E0,-1.797312469E0,-9.717791748E-1,6.756692079E0
6.934742708E0,-5.560486908E0,-1.890568542E0,-1.907034302E-1,5.876191953E0
6.944765708E0,-3.813769226E0,-2.907254333E0,-9.774673462E-2,4.796511013E0
6.954787708E0,-2.558479614E0,-3.544628906E0,-3.737727356E-1,4.387472858E0
6.964810708E0,-2.241289215E0,-2.893183594E0,-1.161584473E-1,3.661609132E0
6.974833708E0,-1.410666504E0,-1.679058380E0,-3.436853027E-1,2.219760486E0
6.984855708E0,-4.414320374E-1,-4.146377563E-1,-4.308041382E-1,7.432219844E-1
6.994878708E0,9.934840393E-1,5.571414185E-1,-4.152365112E-1,1.212368944E0
7.004901708E0,2.436932373E0,9.888436890E-1,-8.665480042E-1,2.768999219E0
7.014923708E0,3.606300659E0,1.479523315E0,-1.352886658E0,4.126099368E0
7.024946708E0,4.531826019E0,2.728376312E0,-1.224753113E0,5.429687335E0
7.034969708E0,6.384074249E0,4.134252777E0,-4.378395081E-1,7.618408855E0
7.044991708E0,9.740394745E0,4.843627625E0,8.828640747E-1,1.091400327E1
7.055014708E0,1.365101257E1,5.292244720E0,2.090852051E0,1.478951185E1
7.065037708E0,1.800934937E1,6.430178375E0,2.292033691E0,1.925973201E1
7.075059708E0,2.288650726E1,8.124355316E0,2.196083221E0,2.438483433E1
7.085082708E0,2.777010178E1,9.511221313E0,2.135459290E0,2.943131105E1
7.095105708E0,3.123973663E1,1.042087967E1,1.248104553E0,3.295563143E1
7.105127708E0,3.190764771E1,1.309686493E1,-9.789642334E-2,3.449109214E1
7.115150708E0,3.166485260E1,1.437625443E1,-7.033872986E-1,3.478267292E1
7.125173708E0,2.995525772E1,1.384695511E1,-6.523434448E-1,3.300728984E1
7.135195708E0,2.736654099E1,1.215352661E1,-4.556524658E-1,2.994734368E1
7.145218708E0,2.422128159E1,1.031055908E1,-2.914439392E-1,2.632609067E1
7.155241708E0,2.023731628E1,8.833580475E0,-8.981323242E-4,2.208123899E1
7.165263708E0,1.620290588E1,7.698041840E0,4.839436340E-1,1.794514443E1
7.175286708E0,1.282667679E1,6.625821533E0,7.575746155E-1,1.445680005E1
7.185309708E0,1.037058426E1,5.786067810E0,7.819738770E-1,1.190122186E1
7.195331708E0,8.940907288E0,5.353766785E0,7.924520874E-1,1.045134547E1
7.205354708E0,8.255632324E0,5.089715881E0,7.680528259E-1,9.728852860E0
7.215377708E0,7.887398071E0,4.875211945E0,5.745053101E-1,9.290252752E0
7.225399708E0,7.663613434E0,4.775070190E0,4.174818420E-1,9.039167953E0
7.235422708E0,7.481292572E0,4.729265442E0,2.357597351E-1,8.853884618E0
7.245445708E0,7.262896729E0,4.665348358E0,7.020401001E-2,8.632500958E0
7.255467708E0,6.602021027E0,4.562512207E0,-5.044509888E-2,8.025318933E0
7.265490708E0,5.879772949E0,4.229005737E0,-1.514849854E-1,7.244250628E0
7.275513708E0,5.181624756E0,3.638334045E0,-1.026864624E-1,6.332239276E0
7.285535708E0,4.510270844E0,3.148851929E0,1.667532349E-1,5.503237065E0
7.295558708E0,4.028722229E0,2.745291138E0,6.014492798E-1,4.912124537E0
7.305581708E0,3.627706146E0,2.313439178E0,8.367599487E-1,4.383197455E0
7.315603708E0,3.315455475E0,1.993853760E0,1.044228516E0,4.007257293E0
7.325626708E0,3.085683289E0,1.784888306E0,1.269809418E0,3.784135777E0
7.335649708E0,2.805316315E0,1.596280518E0,1.425036621E0,3.528263098E0
7.345671708E0,2.448159027E0,1.356628876E0,1.460512848E0,3.157059123E0
7.355694708E0,2.301015015E0,1.131347351E0,1.377884674E0,2.910873254E0
7.365717708E0,2.459535370E0,9.710307312E-1,1.301244049E0,2.947108921E0
7.375739708E0,2.675386505E0,8.973838806E-1,1.146914978E0,3.046047398E0
7.385762708E0,2.890339508E0,8.463400269E-1,1.000818787E0,3.173640206E0
7.395785708E0,3.063080292E0,8.324189758E-1,8.544232178E-1,3.287160060E0
7.405807708E0,3.312312012E0,7.955955505E-1,4.475692749E-1,3.435797054E0
7.415830708E0,3.390599213E0,8.991801453E-1,-5.328918457E-2,3.508208616E0
7.425853708E0,3.342399445E0,1.217867432E0,-5.614823914E-1,3.601402172E0
7.435875708E0,3.383414154E0,1.517095184E0,-1.114582214E0,3.871868108E0
7.445898708E0,4.039799194E0,1.824256439E0,-1.677112427E0,4.739261037E0
7.455921708E0,5.115761719E0,2.189646606E0,-1.914818115E0,5.884904302E0
7.465943708E0,6.380481720E0,2.588117981E0,-2.094743958E0,7.197003120E0
7.475966708E0,7.671397247E0,2.891537018E0,-2.258204041E0,8.503576162E0
7.485989708E0,8.869805145E0,3.135379944E0,-2.093995514E0,9.637887109E0
7.496011708E0,1.042357407E1,3.513643341E0,-2.146236877E0,1.120727079E1
7.506034708E0,1.241563156E1,4.065845032E0,-2.567610626E0,1.331433916E1
7.516057708E0,1.402119278E1,4.647984467E0,-2.624192963E0,1.500279958E1
7.526079708E0,1.519924301E1,4.791535950E0,-2.594704285E0,1.614646386E1
7.536102708E0,1.522618698E1,5.394931183E0,-2.514022064E0,1.634816073E1
7.546125708E0,1.541748917E1,5.920937347E0,-2.886297913E0,1.676565498E1
7.556147708E0,1.604288864E1,6.029162292E0,-3.675157471E0,1.752803059E1
7.566170708E0,1.631008301E1,6.022276611E0,-4.395758972E0,1.793346928E1
7.576193708E0,1.572090820E1,5.876479797E0,-4.920717316E0,1.748980927E1
7.586215708E0,1.482606903E1,5.423372040E0,-5.032684479E0,1.656964696E1
7.596238708E0,1.396820297E1,4.743485870E0,-4.831203461E0,1.552262476E1
7.606261708E0,1.365146164E1,4.038601685E0,-4.462071075E0,1.491920865E1
7.616283708E0,1.382929184E1,3.291654968E0,-4.009711761E0,1.477031122E1
7.626306708E0,1.405502243E1,2.270029449E0,-3.916904755E0,1.476613802E1
7.636329708E0,1.389740021E1,1.087638245E0,-4.311184845E0,1.459133319E1
7.646351708E0,1.306872345E1,3.683839417E-1,-4.815935211E0,1.393271227E1
7.656374708E0,1.206446182E1,-1.152603149E-1,-5.712570648E0,1.334908189E1
7.666397708E0,1.090182953E1,-4.528083801E-1,-6.565047913E0,1.273400081E1
7.676419708E0,9.444460144E0,-5.554948425E-1,-6.435716858E0,1.144223988E1
7.686442708E0,8.370144196E0,-7.509883118E-1,-5.993237000E0,1.032192749E1
7.696465708E0,7.789950714E0,-9.644444275E-1,-5.609734497E0,9.647932748E0
7.706487708E0,7.336992645E0,-9.324110413E-1,-5.249134369E0,9.069413600E0
7.716510708E0,6.991810455E0,-7.432044983E-1,-5.046306152E0,8.654650319E0
7.726533708E0,6.738686829E0,-7.110214233E-1,-5.161716156E0,8.518143302E0
7.736555708E0,6.544540558E0,-5.300477600E-1,-5.472919006E0,8.547795282E0
7.746578708E0,6.420448608E0,-1.203497314E-1,-5.654940491E0,8.556576205E0
7.756601708E0,6.248007202E0,1.468446350E-1,-5.686225433E0,8.449397436E0
7.766623708E0,6.205944672E0,2.414479065E-1,-5.575605469E0,8.346222062E0
7.776646708E0,6.490652618E0,2.805166626E-1,-5.491480408E0,8.506680791E0
7.786669708E0,6.629114685E0,2.830613708E-1,-5.281766510E0,8.480704140E0
7.796691708E0,6.627318420E0,2.360591125E-1,-4.940176849E0,8.269366400E0
7.806714708E0,6.756200409E0,1.392105103E-2,-4.474495239E0,8.103551407E0
7.816737708E0,6.962321777E0,-2.192939758E-1,-4.037703552E0,8.051401391E0
7.826759708E0,7.137008514E0,-2.472857666E-1,-3.623963928E0,8.008193013E0
7.836782708E0,7.460186462E0,-1.706451416E-1,-3.482807465E0,8.234892207E0
7.846805708E0,7.717501373E0,-9.520202637E-2,-3.521576843E0,8.483536664E0
7.856827708E0,7.898924103E0,-2.679428101E-2,-3.719165955E0,8.730745404E0
7.866850708E0,8.029003601E0,1.287322998E-1,-4.008514252E0,8.974946091E0
7.876873708E0,7.951913910E0,3.517684937E-1,-4.249064026E0,9.022816689E0
7.886895708E0,7.839198303E0,6.261479187E-1,-4.448000336E0,9.034921042E0
7.896918708E0,7.801476746E0,8.732839966E-1,-4.579876099E0,9.088505346E0
7.906941708E0,7.832162933E0,1.091230774E0,-4.579127655E0,9.137941283E0
7.916963708E0,7.838599548E0,1.195114746E0,-4.436474304E0,9.085936737E0
7.926986708E0,7.674091644E0,1.251846771E0,-4.101321259E0,8.790883856E0
7.937009708E0,7.442672882E0,1.425485687E0,-3.713627472E0,8.438982052E0
7.947031708E0,7.451953583E0,1.632954254E0,-3.476520538E0,8.383576018E0
7.957054708E0,7.735314331E0,1.857487335E0,-3.244652710E0,8.591456117E0
7.967077708E0,7.897876282E0,2.010319519E0,-2.908152466E0,8.653044845E0
7.977099708E0,7.863298187E0,2.039957886E0,-2.650687866E0,8.545117479E0
7.987122708E0,7.832612000E0,2.047292633E0,-2.453547821E0,8.459380283E0
7.997145708E0,7.705226898E0,2.154469757E0,-2.235900421E0,8.307316786E0
8.007167708E0,7.400909729E0,2.264940033E0,-2.095492401E0,8.018385534E0
8.017190708E0,7.076534271E0,2.356998596E0,-2.049987030E0,7.735323296E0
8.027213708E0,6.780000916E0,2.489772491E0,-2.189496918E0,7.547269455E0
8.037235708E0,6.873107300E0,2.681374054E0,-2.316283264E0,7.732692864E0
8.047258708E0,7.194488983E0,2.801873474E0,-2.287842407E0,8.052663508E0
8.057281708E0,7.570057983E0,2.914738770E0,-2.233355713E0,8.413641168E0
8.067303708E0,7.910001068E0,3.128344574E0,-2.126328278E0,8.767891914E0
8.077326708E0,8.410410461E0,3.279081116E0,-1.933828583E0,9.231850848E0
8.087349708E0,8.859925690E0,3.270249481E0,-1.789678345E0,9.612271504E0
8.097371708E0,9.090745697E0,3.076252899E0,-1.712588654E0,9.748740899E0
8.107394708E0,8.962312775E0,2.816542969E0,-1.748663635E0,9.555824877E0
8.117417708E0,8.611592102E0,2.674338684E0,-1.999541931E0,9.236329025E0
8.127439708E0,8.056396637E0,2.578537903E0,-2.460583191E0,8.809588760E0
8.137462708E0,7.639363861E0,2.491269379E0,-2.933300171E0,8.553978794E0
8.147485708E0,7.147935791E0,2.362836456E0,-3.162323914E0,8.165554159E0
8.157507708E0,6.569089508E0,2.171833649E0,-3.159030762E0,7.605871003E0
8.167530708E0,6.073769531E0,1.948947144E0,-3.030298462E0,7.061995473E0
8.177553708E0,6.044131165E0,1.787433014E0,-2.822979584E0,6.906203881E0
8.187575708E0,6.427933044E0,1.667532349E0,-2.379451904E0,7.054132032E0
8.197598708E0,6.817872162E0,1.627415771E0,-1.843865662E0,7.247875791E0
8.207621708E0,7.329807587E0,1.898202667E0,-1.493294678E0,7.717459531E0
8.217643708E0,8.389903107E0,2.385289764E0,-1.555116119E0,8.859936091E0
8.227666708E0,1.000294876E1,3.086431732E0,-1.952240295E0,1.064876927E1
8.237689708E0,1.153606064E1,3.890260162E0,-2.753074951E0,1.248175632E1
8.247711708E0,1.333666626E1,4.621489563E0,-3.489842834E0,1.453973300E1
8.257734708E0,1.606219849E1,5.403014374E0,-3.410507812E0,1.728636307E1
8.267757708E0,1.976415024E1,6.310277710E0,-2.627336426E0,2.091277447E1
8.277779708E0,2.435136108E1,7.725285187E0,-8.569679260E-1,2.556175291E1
8.287802708E0,2.804522964E1,9.276210022E0,1.164129181E0,2.956244535E1
8.297825708E0,3.014581146E1,1.004905289E1,2.406545563E0,3.186761482E1
8.307847708E0,3.068558899E1,9.587712250E0,2.535726929E0,3.224840320E1
8.317870708E0,2.930291428E1,8.555608521E0,1.914219360E0,3.058632796E1
8.327893708E0,2.642425049E1,7.438481598E0,8.720864868E-1,2.746511528E1
8.337915708E0,2.295805847E1,6.626869354E0,-2.034269714E-1,2.389621788E1
8.347938708E0,1.938438995E1,6.006259918E0,-7.911048889E-1,2.030900241E1
8.357961708E0,1.583392319E1,5.404960327E0,-9.098080444E-1,1.675572948E1
8.367983708E0,1.263282990E1,4.639901276E0,-3.989204407E-1,1.346388549E1
8.378006708E0,1.006701553E1,3.244053955E0,2.899470520E-1,1.058077299E1
8.388029708E0,7.607480164E0,1.996997223E0,8.137078857E-1,7.907203859E0
8.398051708E0,5.511987762E0,1.787882080E0,9.767189026E-1,5.876436951E0
8.408074708E0,4.068539429E0,2.543510742E0,6.834786987E-1,4.846607381E0
8.418097708E0,3.440295868E0,3.192111969E0,3.787124634E-1,4.708358271E0
8.428119708E0,3.833977203E0,2.741099854E0,2.990780640E-1,4.722547754E0
8.438142708E0,4.267326050E0,2.095941467E0,4.776567078E-1,4.778200308E0
8.448165708E0,4.359833679E0,1.671723633E0,4.417314148E-1,4.690195759E0
8.458187708E0,4.201313324E0,1.140478363E0,2.418969727E-1,4.360073243E0
8.468210708E0,3.671864319E0,6.863227844E-1,1.664538574E-1,3.739162129E0
8.478233708E0,2.703977051E0,3.435356140E-1,1.020877075E-1,2.727623601E0
8.488255708E0,1.285676422E0,3.697311401E-2,1.496887207E-3,1.286208814E0
8.498278708E0,-2.106120300E-1,-4.701722717E-1,-1.420545959E-1,5.344145400E-1
8.508301708E0,-1.603764954E0,-9.400451660E-1,-1.541793823E-1,1.865346676E0
8.518323708E0,-2.669398956E0,-1.320703583E0,8.427474976E-2,2.979438030E0
8.528346708E0,-3.376528473E0,-1.710043945E0,5.276527405E-1,3.821467289E0
8.538369708E0,-3.699706421E0,-2.060465240E0,1.179397430E0,4.395943915E0
8.548391708E0,-3.875440979E0,-2.336640930E0,1.856738892E0,4.891463271E0
8.558414708E0,-3.934418335E0,-2.554438019E0,2.386636963E0,5.263158483E0
8.568437708E0,-3.809727631E0,-2.637365570E0,2.848127289E0,5.438892426E0
8.578459708E0,-3.448977814E0,-2.591560822E0,3.343896332E0,5.458321915E0
8.588482708E0,-3.043920135E0,-2.509980469E0,3.627257080E0,5.359332577E0
8.598505958E0,-2.608475647E0,-2.220033417E0,3.518283691E0,4.910296702E0
8.608527958E0,-1.942809906E0,-1.720971222E0,3.088826752E0,4.034489184E0
8.618550958E0,-1.114881592E0,-1.095422058E0,2.336042175E0,2.810694486E0
8.628573958E0,-5.301974487E-1,-4.713697815E-1,1.297501831E0,1.478786600E0
8.638595958E0,-6.167175293E-2,9.415420532E-2,1.040336609E-1,1.532691165E-1
8.648618958E0,7.113208008E-1,5.971083069E-1,-1.062191162E0,1.410944959E0
8.658641958E0,2.283501434E0,1.305135956E0,-2.183060303E0,3.418115116E0
8.668663958E0,5.655838623E0,2.437680817E0,-3.194057922E0,6.937780935E0
8.678686958E0,1.154474258E1,4.000131683E0,-4.398453369E0,1.298570471E1
8.688709958E0,1.845691864E1,6.255192261E0,-4.811294861E0,2.007321185E1
8.698731958E0,2.781800217E1,8.718320160E0,-4.905000000E0,2.956195826E1
8.708754958E0,3.844245850E1,1.087398743E1,-2.812351685E0,4.004966342E1
8.718777958E0,4.520195206E1,1.448882034E1,6.583309937E-1,4.747184202E1
8.728799958E0,4.487982193E1,1.685929092E1,8.942404175E-1,4.795032610E1
8.738822958E0,3.878719162E1,1.533995041E1,-3.845503235E-1,4.171220674E1
8.748845958E0,3.127641037E1,1.095676529E1,-1.416654053E0,3.317034006E1
8.758867958E0,2.353825195E1,6.947951660E0,-2.107317810E0,2.463258260E1
8.768890958E0,1.712738342E1,4.856500854E0,-2.787203979E0,1.801947195E1
8.778913958E0,1.252954468E1,4.722529449E0,-3.007845154E0,1.372366229E1
8.788935958E0,9.791887665E0,5.179080048E0,-2.370470581E0,1.132797709E1
8.798958958E0,8.351133728E0,4.406686249E0,-7.640112305E-1,9.473332645E0
8.808981958E0,7.604037323E0,2.795885925E0,1.156195679E0,8.183834686E0
8.819003958E0,7.276967468E0,1.821711731E0,2.047442322E0,7.775918545E0
8.829026958E0,7.279661865E0,1.698817291E0,2.006427612E0,7.739845530E0
8.839049958E0,7.470814362E0,1.911824341E0,1.519190826E0,7.859776097E0
8.849071958E0,7.644453278E0,2.337389374E0,9.388476562E-1,8.048757042E0
8.859094958E0,7.830366669E0,2.905308380E0,1.612147522E-1,8.353529143E0
8.869117958E0,7.835306396E0,3.367397461E0,-8.030799866E-1,8.565998450E0
8.879139958E0,7.288493500E0,3.778442688E0,-1.754950562E0,8.395154443E0
8.889162958E0,6.912325745E0,3.653302917E0,-2.405198364E0,8.179966294E0
8.899185958E0,7.434290314E0,3.207829285E0,-2.993924103E0,8.632637066E0
8.909207958E0,5.560935974E0,2.700983276E0,-2.073338470E0,6.520586782E0
8.919230958E0,4.331392822E0,2.203268280E0,-1.413959656E0,5.061090476E0
8.929253958E0,4.333039398E0,1.952689362E0,-1.279688873E0,4.921974175E0
8.939275958E0,3.944746857E0,1.621428223E0,-9.851014709E-1,4.377268801E0
8.949298958E0,3.376378784E0,1.153501282E0,-2.830613708E-1,3.579193015E0
8.959321958E0,2.801424408E0,8.611592102E-1,3.215313721E-1,2.948381984E0
8.969343958E0,2.370021515E0,7.791297913E-1,6.288423157E-1,2.572836542E0
8.979366958E0,2.002835083E0,6.930587769E-1,4.556524658E-1,2.167786430E0
8.989389958E0,1.505718842E0,7.223977661E-1,4.041595459E-3,1.670049130E0
8.999411958E0,9.310638428E-1,8.632548523E-1,-4.923262024E-1,1.361790699E0
9.009434958E0,4.722679138E-1,1.043629761E0,-1.000669098E0,1.521032118E0
9.019457958E0,1.457968140E-1,1.190324707E0,-1.308129730E0,1.774636022E0
9.029479958E0,-4.165837097E-1,1.536704407E0,-1.463057556E0,2.162299663E0
9.039502958E0,-1.277593231E0,2.222129059E0,-1.727258148E0,3.090877340E0
9.049525958E0,-1.710343323E0,2.335742798E0,-2.226919098E0,3.652415279E0
9.059547958E0,-1.540895691E0,1.847907257E0,-2.648741913E0,3.578401107E0
9.069570958E0,-1.255738678E0,1.450783081E0,-2.607577515E0,3.237454505E0
9.079593958E0,-1.171314240E0,1.281036072E0,-2.612517242E0,3.136602749E0
9.089615958E0,-8.285270691E-1,1.273401947E0,-2.696642303E0,3.095139631E0
9.099638958E0,6.646179199E-2,1.750609589E0,-2.916385345E0,3.402110313E0
9.109661958E0,2.210603027E0,2.649190979E0,-3.286565552E0,4.765132917E0
9.119683958E0,5.491031342E0,3.615581360E0,-3.682342529E0,7.535482749E0
9.129706958E0,9.895771637E0,5.020260315E0,-4.143982544E0,1.184491035E1
9.139729958E0,1.605680969E1,7.033723297E0,-3.433410187E0,1.786288628E1
9.149751958E0,2.531221298E1,8.798253937E0,-1.046473846E0,2.681813763E1
9.159774958E0,3.572156662E1,9.642947388E0,3.294499054E0,3.714660792E1
9.169797958E0,4.292788101E1,1.099089432E1,9.988428955E0,4.542434853E1
9.179819958E0,4.590997971E1,1.264660126E1,1.400457733E1,4.963658878E1
9.189842958E0,4.364653656E1,1.221355179E1,1.243104950E1,4.699704238E1
9.199865958E0,3.757561111E1,9.442514191E0,8.453969879E0,3.965548173E1
9.209887958E0,2.940395416E1,6.094576263E0,5.700445862E0,3.056520020E1
9.219910958E0,2.157194092E1,2.614014130E0,5.496120758E0,2.241403686E1
9.229933958E0,1.454225922E1,-1.224902802E0,7.559879150E0,1.643561568E1
9.239955958E0,8.765771484E0,-5.058281250E0,9.468110962E0,1.385893517E1
9.249978958E0,4.335733795E0,-3.606001282E0,5.514831848E0,7.887661447E0
9.260001958E0,1.748214569E0,-9.355545044E-2,-1.906285858E0,2.588229622E0
9.270023958E0,1.768572235E0,2.832110596E0,-7.563621368E0,8.267833234E0
9.280046958E0,3.895948334E0,3.775299225E0,-1.251412674E1,1.363945254E1
9.290069958E0,1.573378143E0,4.336332550E0,-6.200705566E0,7.728392348E0
9.300091958E0,1.321751404E-1,3.075354767E0,1.991458740E0,3.666222187E0
9.310114958E0,1.563798065E0,7.646099854E-1,9.704768829E0,9.859646588E0
9.320137958E0,3.003504181E0,1.769470367E0,1.341225906E1,1.385787704E1
9.330159958E0,4.613556061E0,2.918480988E0,1.167362457E1,1.288704549E1
9.340182958E0,5.272186432E0,3.410358124E0,7.566315765E0,9.832376446E0
9.350205958E0,5.412444763E0,3.816912689E0,3.897295532E0,7.684548995E0
9.360227958E0,6.227649536E0,4.597539368E0,8.387059021E-1,7.786168157E0
9.370250958E0,6.923103333E0,5.948031006E0,-1.585951996E0,9.264106883E0
9.380273958E0,8.128845978E0,7.006479950E0,-3.867806854E0,1.140740234E1
9.390295958E0,9.632768555E0,8.091573486E0,-4.462370453E0,1.334827860E1
9.400318958E0,1.019455032E1,8.788823547E0,-4.257446594E0,1.411729886E1
9.410341958E0,9.994416504E0,8.801247711E0,-4.561464386E0,1.407683487E1
9.420363958E0,9.893825684E0,8.366252289E0,-4.741090851E0,1.379709776E1
9.430386958E0,9.484576721E0,8.586294708E0,-3.748654633E0,1.333169396E1
9.440409958E0,9.260941772E0,8.142467651E0,-2.136656799E0,1.251519573E1
9.450431958E0,8.995244293E0,7.156617737E0,1.207389221E0,1.155808747E1
9.460454958E0,8.158634033E0,6.324198761E0,4.812941437E0,1.138960950E1
9.470477958E0,7.010222168E0,5.425916748E0,6.786287842E0,1.116411618E1
9.480499958E0,4.735103302E0,4.457131348E0,7.979756012E0,1.029386852E1
9.490522958E0,3.263663177E0,3.259172516E0,9.373507690E0,1.044683441E1
9.500545958E0,1.657203827E0,3.811374207E0,1.153112091E1,1.225722837E1
9.510567958E0,5.433700562E-1,4.754113770E0,1.235216354E1,1.324661440E1
9.520590958E0,-1.446142731E0,2.951861572E0,1.019215530E1,1.070910105E1
9.530613958E0,-1.104104004E0,2.348616028E0,9.608219604E0,9.952533691E0
9.540635958E0,-6.670129395E-1,5.403762817E0,1.367196899E1,1.471625955E1
9.550658958E0,-1.785786438E-1,5.732928314E0,1.616263962E1,1.715019757E1
9.560681958E0,1.222358093E0,4.832700348E0,1.844793732E1,1.910956680E1
9.570703958E0,2.177372131E0,3.894900513E0,1.839524689E1,1.892871648E1
9.580726958E0,3.523672485E0,2.829565887E0,1.662652496E1,1.722974298E1
9.590749958E0,3.769611053E0,2.676434326E0,1.609842316E1,1.674910434E1
9.600772208E0,5.463638306E0,2.179767151E0,1.503802826E1,1.614760113E1
9.610795208E0,6.096073151E0,3.460653534E0,1.270692581E1,1.451220846E1
9.620818208E0,5.399571533E0,6.370602264E0,1.138936569E1,1.412294576E1
9.630840208E0,4.140988770E0,7.026538239E0,1.121437958E1,1.386659067E1
9.640863208E0,2.544408875E0,5.976022797E0,1.160476776E1,1.329877813E1
9.650886208E0,9.651928711E-1,5.218897247E0,1.224798019E1,1.334846450E1
9.660908208E0,-9.901908875E-1,4.734504547E0,1.194066925E1,1.288315153E1
9.670931208E0,-2.624043274E0,4.132007446E0,1.052341644E1,1.160609246E1
9.680954208E0,-2.980003052E0,3.002156982E0,8.689430237E0,9.664344912E0
9.690976208E0,-3.164868622E0,2.585124207E0,7.480993195E0,8.524348640E0
9.700999208E0,-4.555776215E0,3.095263367E0,5.803731079E0,8.001190328E0
9.711022208E0,-6.732699280E0,4.306694183E0,2.404898987E0,8.346280220E0
9.721044208E0,-4.887187042E0,5.024451599E0,7.979905701E-1,7.054537547E0
9.731067208E0,-2.609822845E0,5.419629822E0,-9.595046997E-2,6.016042651E0
9.741090208E0,-2.082619171E0,6.040089569E0,-1.193019104E-1,6.390165691E0
9.751112208E0,-1.023870850E0,6.803052979E0,-1.369651794E-1,6.881031958E0
9.761135208E0,-6.973997498E-1,6.709198151E0,-1.696122894E0,6.955324515E0
9.771158208E0,-1.198707275E0,6.183641052E0,-2.813100128E0,6.898394605E0
9.781180208E0,-1.223705292E0,6.080355835E0,-2.165247345E0,6.569359009E0
9.791203208E0,-8.282276917E-1,5.699996796E0,-9.470805359E-1,5.837198482E0
9.801226208E0,-9.973759460E-1,5.047204285E0,5.643264771E-1,5.175663652E0
9.811248208E0,-1.636546783E0,4.525090027E0,1.648821259E0,5.086583988E0
9.821271208E0,-2.222428436E0,3.824546814E0,2.888543243E0,5.282994279E0
9.831294208E0,-2.558030548E0,3.349584503E0,4.718338165E0,6.326606647E0
9.841316208E0,-2.621199188E0,3.322790222E0,6.361171875E0,7.640427191E0
9.851339208E0,-2.786904602E0,3.798650665E0,6.735842743E0,8.219985498E0
9.861362208E0,-3.056194611E0,4.370611267E0,6.029910736E0,8.049993281E0
9.871384208E0,-3.073558502E0,5.005441132E0,5.382656708E0,7.967069475E0
9.881407208E0,-2.670746155E0,5.625451813E0,5.303022308E0,8.179281064E0
9.891430208E0,-2.402054901E0,6.030958557E0,5.637875977E0,8.598137844E0
9.901452208E0,-1.765728149E0,6.558760986E0,5.895041199E0,8.993700701E0
9.911475208E0,-7.743397522E-1,6.784491577E0,6.410120087E0,9.365819107E0
9.921498208E0,-1.908381500E0,6.593488770E0,5.798192596E0,8.985268582E0
9.931520208E0,-2.510878601E0,6.882388000E0,4.541555786E0,8.619600043E0
9.941543208E0,-1.708846436E0,7.421117706E0,3.740272064E0,8.484266572E0
9.951566208E0,-1.483714600E0,7.705376587E0,3.826642456E0,8.730259437E0
9.961588208E0,-1.730251923E0,7.205715637E0,4.640500031E0,8.743589085E0
9.971611208E0,-2.320624237E0,5.904321899E0,4.188889160E0,7.602177737E0
9.981634208E0,-1.212628326E0,5.818250885E0,4.038751373E0,7.185681838E0
9.991656208E0,-1.432071991E0,5.166057129E0,4.533023529E0,7.020489923E0
1.000167921E1,-1.343905334E0,6.004912720E0,3.140020294E0,6.908312802E0
1.001170221E1,-2.352807312E0,5.013823700E0,2.690804443E0,6.157479914E0
1.002172421E1,-2.894231415E0,4.271367645E0,9.876461792E-1,5.253246807E0
1.003174721E1,-1.774410095E0,5.030738525E0,6.872209167E-1,5.378581029E0
1.004177021E1,-5.587879944E-1,5.227728882E0,4.662803650E-1,5.278144623E0
1.005179221E1,-2.141596527E0,4.391567688E0,4.047583008E-1,4.902665777E0
1.006181521E1,-1.357227631E0,4.445755005E0,-6.053411865E-1,4.687562518E0
1.007183821E1,-1.088386688E0,3.970792694E0,2.165995789E-1,4.122947438E0
1.008186021E1,-1.980681152E0,3.667523346E0,1.673519897E-1,4.171550312E0
1.009188321E1,-2.461181946E0,3.320095825E0,1.041384430E0,4.262034067E0
1.010190621E1,-2.204765167E0,2.974763947E0,3.225193176E0,4.910405381E0
1.011192821E1,-1.486408997E-1,3.383264465E0,5.050647125E0,6.080921718E0
1.012195121E1,2.334545288E0,3.786076813E0,5.978268127E0,7.451454163E0
1.013197421E1,3.324586487E0,4.111051025E0,7.379504242E0,9.078033856E0
1.014199621E1,3.722608795E0,4.896318054E0,8.159831543E0,1.021834613E1
1.015201921E1,3.887116699E0,5.495971069E0,8.242908783E0,1.064241135E1
1.016204221E1,4.234693909E0,5.841602325E0,7.908204803E0,1.070498265E1
1.017206421E1,4.437372437E0,6.252348175E0,7.367080078E0,1.063277954E1
1.018208721E1,4.213587799E0,6.447392578E0,6.993307343E0,1.040334277E1
1.019211021E1,4.831053772E0,6.584806824E0,7.173083496E0,1.086976947E1
1.020213221E1,5.254223785E0,7.470215607E0,8.061486053E0,1.218189420E1
1.021215521E1,5.483846283E0,8.127498779E0,7.428602142E0,1.230093233E1
1.022217821E1,5.123395844E0,7.788753204E0,6.561754761E0,1.140045995E1
1.023220021E1,4.177961884E0,6.971003723E0,6.156547394E0,1.019575079E1
1.024222321E1,3.695515137E0,6.063740387E0,5.771697693E0,9.150861919E0
1.025224621E1,3.102747803E0,5.351072388E0,5.368735657E0,8.190503170E0
1.026226821E1,2.651735687E0,5.164859619E0,4.891677704E0,7.591836919E0
1.027229121E1,2.588567047E0,5.130880280E0,4.132157135E0,7.078229608E0
1.028231421E1,3.095562744E0,5.097350006E0,3.647165680E0,6.990515237E0
1.029233621E1,4.007466431E0,5.622757416E0,3.393143921E0,7.693413665E0
1.030235921E1,5.144651642E0,5.669609985E0,3.939058685E0,8.609767780E0
1.031238221E1,5.985752563E0,5.695356445E0,5.178181915E0,9.750891587E0
1.032240421E1,7.323071594E0,7.025939484E0,5.695805511E0,1.163758582E1
1.033242721E1,9.470056915E0,8.145311737E0,6.565347290E0,1.411140908E1
1.034245021E1,1.106813370E1,8.732690277E0,8.381071472E0,1.640139695E1
1.035247221E1,1.201237015E1,9.228159943E0,9.542057190E0,1.790270449E1
1.036249521E1,1.193857361E1,9.530980225E0,9.367071075E0,1.791957434E1
1.037251821E1,1.129745682E1,9.818083191E0,8.244106293E0,1.708779028E1
1.038254021E1,1.074465637E1,1.008033783E1,7.170838165E0,1.638541337E1
1.039256321E1,1.073058563E1,1.011087433E1,6.852001190E0,1.625808008E1
1.040258621E1,1.121497833E1,1.033885025E1,7.621251526E0,1.705142335E1
1.041260821E1,1.152827682E1,1.077983322E1,8.365653534E0,1.786309407E1
1.042263121E1,1.134924911E1,1.115884506E1,8.334817657E0,1.796648168E1
1.043265421E1,1.137724091E1,1.146840134E1,7.848029938E0,1.795988346E1
1.044267621E1,1.151315826E1,1.167227737E1,6.976392517E0,1.781754542E1
1.045269921E1,1.129386429E1,1.166509232E1,5.866450653E0,1.726386378E1
1.046272221E1,1.134790192E1,1.177167068E1,4.794978790E0,1.703933479E1
1.047274421E1,1.093281509E1,1.266636017E1,4.274361420E0,1.726943228E1
1.048276721E1,9.521549835E0,1.208392136E1,4.033661957E0,1.590444892E1
1.049279021E1,9.000483398E0,1.124895767E1,3.945794678E0,1.493710299E1
1.050281221E1,9.031169586E0,1.009126511E1,4.479434967E0,1.426397536E1
1.051283521E1,9.209748230E0,8.972790985E0,4.980443115E0,1.378895406E1
1.052285821E1,9.508826294E0,9.047335968E0,5.697302399E0,1.430843528E1
1.053288021E1,9.285640411E0,9.951755219E0,6.045178986E0,1.489311045E1
1.054290321E1,8.996591492E0,1.051233948E1,5.804629211E0,1.500472126E1
1.055292621E1,8.605604553E0,1.052102142E1,5.561684418E0,1.468607010E1
1.056294821E1,8.172255707E0,9.977501678E0,5.313650208E0,1.394887743E1
1.057297121E1,8.085735626E0,9.460626526E0,5.208718414E0,1.349123132E1
1.058299421E1,7.599546661E0,8.762328644E0,5.063071289E0,1.265567871E1
1.059301621E1,6.910828857E0,8.004754028E0,4.921166382E0,1.166419826E1
1.060303858E1,6.381230164E0,7.409591675E0,5.561983795E0,1.124979159E1
1.061306158E1,5.892047424E0,6.715036011E0,6.189329224E0,1.086810599E1
1.062308358E1,5.536087646E0,5.944139099E0,6.265670471E0,1.025863941E1
1.063310658E1,5.043162689E0,5.406606903E0,5.709277496E0,9.341345601E0
1.064312958E1,4.450994110E0,4.714146881E0,5.101092224E0,8.249586127E0
1.065315158E1,3.759132843E0,3.832180939E0,4.409380646E0,6.946893418E0
1.066317458E1,3.816164246E0,3.014880524E0,3.337010651E0,5.898156848E0
1.067319758E1,2.949017487E0,2.859803009E0,3.844156036E0,5.626074388E0
1.068321958E1,2.314187622E0,3.091521149E0,4.206851807E0,5.710566477E0
1.069324258E1,2.434237976E0,2.757116547E0,4.206103363E0,5.587352833E0
1.070326558E1,2.162552948E0,2.134710846E0,4.224664764E0,5.203980978E0
1.071328758E1,1.488654327E0,1.523531799E0,3.919599152E0,4.460997462E0
1.072331058E1,1.216969299E0,7.328759766E-1,3.460054779E0,3.740334283E0
1.073333358E1,3.381468201E0,-8.512797546E-1,3.406915283E0,4.875046273E0
1.074335558E1,3.038681030E-1,-9.755213928E-1,2.486629028E0,2.688364138E0
1.075337858E1,-2.137405243E0,-6.108796692E-1,1.979783020E0,2.976779459E0
1.076340158E1,-4.000580750E0,5.493576050E-2,6.539900208E-1,4.054055651E0
1.077342358E1,-3.854484558E0,4.086502075E-1,-9.457333374E-1,3.989794198E0
1.078344658E1,-1.556014252E0,-1.606159973E-1,-1.893712006E0,2.456241643E0
1.079346958E1,-1.197509766E-2,-9.994715881E-1,-2.608775024E0,2.793706138E0
1.080349158E1,7.250921631E-1,-1.235081635E0,-3.025508423E0,3.347370088E0
1.081351458E1,1.723216553E0,-8.875044250E-1,-3.347937927E0,3.868569213E0
1.082353758E1,2.370320892E0,-6.454577637E-1,-3.802841949E0,4.527321918E0
1.083355958E1,3.125949554E0,-6.948550415E-1,-4.175117798E0,5.261748072E0
1.084358258E1,3.413052521E0,-9.026229858E-1,-4.520599365E0,5.735806341E0
1.085360558E1,3.884122925E0,-6.233038330E-1,-4.717739410E0,6.142636544E0
1.086362758E1,5.942492523E0,2.797682190E-1,-4.278852081E0,7.328032668E0
1.087365058E1,1.015353561E1,1.063837738E0,-1.918111267E0,1.038774215E1
1.088367358E1,1.570384369E1,2.140548706E0,3.473975830E0,1.622532476E1
1.089369558E1,2.178689392E1,4.748874664E0,1.042162811E1,2.461363219E1
1.090371858E1,2.803430237E1,8.323591003E0,1.600172424E1,3.333555842E1
1.091374158E1,3.223726227E1,1.185729263E1,1.784858368E1,3.870928062E1
1.092376358E1,3.216047195E1,1.560879135E1,1.558858337E1,3.899915711E1
1.093378658E1,2.983894958E1,1.700179459E1,1.120345230E1,3.612397092E1
1.094380958E1,2.632830002E1,1.642594208E1,7.364984436E0,3.189410527E1
1.095383158E1,2.304113571E1,1.394230682E1,5.043312378E0,2.739921266E1
1.096385458E1,1.965951782E1,1.110106522E1,4.214635620E0,2.296722542E1
1.097387758E1,1.601893845E1,8.791218567E0,4.021088104E0,1.870991882E1
1.098389958E1,1.257505005E1,6.844067688E0,4.024830322E0,1.487186624E1
1.099392258E1,9.965825958E0,5.563330994E0,3.737128601E0,1.200976557E1
1.100394558E1,8.388705597E0,4.547094269E0,3.231929169E0,1.007431457E1
1.101396858E1,7.098987579E0,3.852688293E0,2.757116547E0,8.534665980E0
1.102399058E1,6.273005219E0,3.088078308E0,2.517315216E0,7.431264899E0
1.103401358E1,6.294710083E0,1.564845886E0,2.473157043E0,6.941802607E0
1.104403558E1,5.030289459E0,1.910327454E0,2.411784668E0,5.896598028E0
1.105405858E1,3.521576843E0,2.978206787E0,2.608924713E0,5.298840183E0
1.106408158E1,2.940485229E0,2.637814636E0,2.974015503E0,4.944622094E0
1.107410458E1,3.027005310E0,1.811682587E0,3.215014343E0,4.772973095E0
1.108412658E1,3.143762512E0,1.134640503E0,3.138523407E0,4.584864336E0
1.109414958E1,2.874771881E0,8.393046570E-1,2.780168610E0,4.086328814E0
1.110417158E1,2.648292847E0,7.228468323E-1,2.251168671E0,3.550172239E0
1.111419458E1,2.596500549E0,6.321354675E-1,1.825903015E0,3.236561783E0
1.112421758E1,2.513572998E0,4.746629333E-1,1.583407288E0,3.008410337E0
1.113424058E1,2.781665497E0,-3.382965088E-2,1.725611572E0,3.273613093E0
1.114426258E1,3.441792755E0,-4.622387695E-1,2.164349213E0,4.091944472E0
1.115428558E1,3.971092072E0,-5.993536377E-1,2.344424744E0,4.650282185E0
1.116430758E1,4.421505432E0,-8.158035278E-1,2.779569855E0,5.285948757E0
1.117433058E1,4.682712250E0,-6.222560120E-1,3.243754578E0,5.730352547E0
1.118435358E1,4.390519867E0,1.025367737E-1,3.181184692E0,5.422832704E0
1.119437558E1,4.136647797E0,9.765692139E-1,3.057541809E0,5.235848006E0
1.120439858E1,4.231550446E0,1.650767212E0,3.086880798E0,5.491801583E0
1.121442158E1,4.953349457E0,2.278262329E0,3.348836060E0,6.398503969E0
1.122444458E1,6.171366577E0,3.188369751E0,3.660787354E0,7.851931682E0
1.123446658E1,8.002957764E0,4.593198395E0,4.186943207E0,1.013288201E1
1.124448958E1,9.210197296E0,5.854026489E0,4.862338715E0,1.194737202E1
1.125451158E1,9.789492645E0,7.023993530E0,4.750970306E0,1.295153930E1
1.126453458E1,9.983339539E0,8.169261932E0,4.407883759E0,1.363207057E1
1.127455758E1,1.027208908E1,8.729546814E0,4.108656006E0,1.409261707E1
1.128458058E1,1.131497040E1,8.648415527E0,3.783532104E0,1.473562898E1
1.129460258E1,1.219020035E1,9.077273712E0,3.866309967E0,1.568267309E1
1.130462558E1,1.285796173E1,9.619745636E0,4.337380371E0,1.663368734E1
1.131464858E1,1.381836456E1,9.623487854E0,4.981940002E0,1.756070738E1
1.132467058E1,1.457578949E1,9.335935822E0,5.850284271E0,1.827126605E1
1.133469358E1,1.481184860E1,8.941655731E0,6.616091766E0,1.852341050E1
1.134471658E1,1.440514435E1,8.312364349E0,6.940916290E0,1.802165097E1
1.135473858E1,1.372525818E1,7.554640045E0,6.709048462E0,1.704308157E1
1.136476158E1,1.391431503E1,6.506819000E0,6.455775146E0,1.666204937E1
1.137478458E1,1.159488831E1,5.854774933E0,5.579197998E0,1.413673494E1
1.138480658E1,9.593550110E0,5.533393250E0,4.702321472E0,1.203189394E1
1.139482958E1,8.217761078E0,4.683760071E0,4.204756165E0,1.035128881E1
1.140485258E1,7.568261719E0,3.731590118E0,3.706292725E0,9.216287540E0
1.141487458E1,7.515571289E0,2.873724060E0,2.547552338E0,8.439912600E0
1.142489758E1,6.892117767E0,2.262545013E0,1.899699554E0,7.498616916E0
1.143492058E1,5.938450928E0,1.891466675E0,1.614093475E0,6.438023249E0
1.144494258E1,5.349276123E0,1.713786163E0,1.261875916E0,5.757095525E0
1.145496558E1,5.017266541E0,1.567689972E0,8.913963318E-1,5.331529125E0
1.146498858E1,4.874014435E0,1.451830902E0,6.894662476E-1,5.132172385E0
1.147501058E1,4.709057465E0,1.437011719E0,1.140628052E-1,4.924757376E0
1.148503358E1,4.749772797E0,1.357976074E0,-5.766009521E-1,4.973621346E0
1.149505658E1,5.256768494E0,1.212927704E0,-1.266216888E0,5.541490216E0
1.150507858E1,5.304219818E0,1.163680115E0,-1.498982849E0,5.633457985E0
1.151510158E1,5.193599854E0,1.399589539E0,-1.713037720E0,5.645071173E0
1.152512458E1,5.195845184E0,1.662143555E0,-1.927990723E0,5.785903266E0
1.153514658E1,5.369484100E0,1.642534332E0,-1.964514771E0,5.948831551E0
1.154516958E1,5.530249786E0,1.679507446E0,-1.590442657E0,5.994490454E0
1.155519258E1,5.784870300E0,1.886676636E0,-9.586065674E-1,6.159805165E0
1.156521458E1,5.884413300E0,2.193388824E0,-2.389031982E-1,6.284452972E0
1.157523758E1,6.240522766E0,2.320474548E0,2.398013306E-1,6.662299243E0
1.158526058E1,6.797065430E0,2.456691284E0,7.548802185E-1,7.266723792E0
1.159528258E1,7.145690460E0,2.967878265E0,1.302142181E0,7.846321929E0
1.160530633E1,7.395820313E0,3.676804047E0,1.773362274E0,8.447594915E0
1.161532933E1,7.669750671E0,4.501139832E0,1.942959595E0,9.102770300E0
1.162535133E1,7.930957489E0,5.377417603E0,2.040257263E0,9.796905453E0
1.163537433E1,8.063282318E0,6.198310547E0,2.133513336E0,1.039170123E1
1.164539733E1,8.097261658E0,6.934629364E0,2.126777344E0,1.087096650E1
1.165541933E1,8.220006409E0,7.698191528E0,2.070045319E0,1.145057840E1
1.166544233E1,8.562494202E0,8.472680969E0,2.225871277E0,1.224978092E1
1.167546533E1,8.768914948E0,8.982520752E0,2.526296539E0,1.280475391E1
1.168548733E1,8.793912964E0,9.208999786E0,2.961890717E0,1.307330788E1
1.169551033E1,8.818761292E0,9.120683441E0,3.663631439E0,1.320528729E1
1.170553333E1,8.766669617E0,8.956175537E0,4.436623993E0,1.329478126E1
1.171555533E1,8.734636230E0,8.700207825E0,5.265600128E0,1.340574619E1
1.172557833E1,8.556656342E0,8.348289642E0,6.188880157E0,1.346152091E1
1.173560133E1,8.292306061E0,8.106392670E0,6.603966980E0,1.334497365E1
1.174562333E1,8.405919800E0,8.118218079E0,7.002438354E0,1.362347589E1
1.175564633E1,8.749305725E0,8.212821350E0,7.449708252E0,1.412440931E1
1.176566933E1,8.812923431E0,8.250692596E0,7.698191528E0,1.431795029E1
1.177569133E1,9.164542236E0,8.231831818E0,8.034093018E0,1.470709149E1
1.178571433E1,9.604028320E0,8.174051971E0,8.112380219E0,1.499543925E1
1.179573733E1,1.052820648E1,8.318202209E0,7.362439728E0,1.530493837E1
1.180575933E1,1.143502075E1,8.569978638E0,6.382128296E0,1.565042476E1
1.181578233E1,1.234393066E1,8.861871643E0,5.404211884E0,1.612795397E1
1.182580533E1,1.433344345E1,9.213789825E0,5.184917908E0,1.781080845E1
1.183582733E1,1.842368774E1,9.194180603E0,5.806575165E0,2.139349299E1
1.184585033E1,1.975172607E1,1.014230896E1,7.353608093E0,2.338958456E1
1.185587333E1,2.062635727E1,1.201087326E1,8.732839966E0,2.541594351E1
1.186589533E1,2.100477036E1,1.414408722E1,9.160051575E0,2.692883447E1
1.187591833E1,2.269310944E1,1.471724533E1,9.024283905E0,2.851336925E1
1.188594133E1,2.250539978E1,1.532273621E1,7.646848297E0,2.827991430E1
1.189596333E1,2.040302170E1,1.584694611E1,4.928950195E0,2.630025751E1
1.190598633E1,1.814347046E1,1.511511795E1,2.824326782E0,2.378295887E1
1.191600933E1,1.819855591E1,1.161764099E1,2.042203217E0,2.168703791E1
1.192603133E1,1.649614609E1,8.368946686E0,9.425898743E-1,1.852162466E1
1.193605433E1,1.262893799E1,5.940097504E0,-7.842192078E-1,1.397819133E1
1.194607733E1,8.494535522E0,2.855462036E0,-1.157842255E0,9.036116194E0
1.195609933E1,4.457430725E0,4.465214539E-1,-1.763632507E0,4.814402320E0
1.196612233E1,1.497186584E0,-8.791218567E-1,-2.227667542E0,2.824345160E0
1.197614533E1,-4.646337891E-1,-1.852397919E0,-1.917063446E0,2.705992399E0
1.198616733E1,-1.617386627E0,-2.470612335E0,-1.343007202E0,3.243999562E0
1.199619033E1,-1.940115509E0,-2.788551178E0,-9.624984741E-2,3.398430504E0
1.200621333E1,-1.602866821E0,-2.742447052E0,1.413061523E0,3.476627784E0
1.201623533E1,-1.210233307E0,-2.450404358E0,2.696791992E0,3.839509503E0
1.202625833E1,-9.204359436E-1,-2.093845825E0,3.563339996E0,4.234239553E0
1.203628133E1,-9.063652039E-1,-1.763931885E0,3.881129150E0,4.358453517E0
1.204630333E1,-9.671388245E-1,-1.469045105E0,3.640130310E0,4.042771290E0
1.205632633E1,-1.112935638E0,-1.099763031E0,2.864443359E0,3.263914861E0
1.206634933E1,-1.526076508E0,-6.758445740E-1,1.946252747E0,2.563898428E0
1.207637133E1,-1.759291534E0,-5.560935974E-1,1.266067200E0,2.237693667E0
1.208639433E1,-1.783391418E0,-4.821473694E-1,8.493338013E-1,2.033302472E0
1.209641733E1,-1.682201843E0,-3.818559265E-1,6.753955078E-1,1.852505353E0
1.210643933E1,-1.460961914E0,-3.728746033E-1,7.604187012E-1,1.688692330E0
1.211646233E1,-1.322948914E0,-4.272116089E-1,8.491841125E-1,1.629054095E0
1.212648533E1,-1.588646393E0,-6.258485413E-1,1.008303223E0,1.982967258E0
1.213650733E1,-1.857038269E0,-7.575746155E-1,1.030606842E0,2.254919265E0
1.214653033E1,-1.938319244E0,-6.945556641E-1,8.650511169E-1,2.233338868E0
1.215655333E1,-2.019899597E0,-6.065386963E-1,5.433700562E-1,2.177873869E0
1.216657533E1,-1.555415497E0,-2.959346008E-1,2.170486450E-2,1.583466374E0
1.217659833E1,-9.327104187E-1,2.430944824E-1,-4.802014160E-1,1.076864454E0
1.218662133E1,-5.501060486E-1,8.761280823E-1,-7.107220459E-1,1.255126650E0
1.219664333E1,-5.418731689E-2,1.603914642E0,-8.405021667E-1,1.811607667E0
1.220666633E1,7.313790894E-1,2.256557465E0,-1.207089844E0,2.661584651E0
1.221668933E1,1.549128571E0,2.826572113E0,-1.289119263E0,3.471474861E0
1.222671133E1,2.234403534E0,3.781286774E0,-5.971083069E-1,4.432519278E0
1.223673433E1,4.150718536E0,6.160139923E0,1.272054749E0,7.536173533E0
1.224675733E1,8.566685486E0,1.019664597E1,3.333118744E0,1.372841468E1
1.225677933E1,1.362885864E1,1.506961258E1,5.468128967E0,2.104137461E1
1.226680233E1,1.872815460E1,2.017654266E1,7.553592224E0,2.854633784E1
1.227682533E1,2.325279556E1,2.504816208E1,8.853189697E0,3.530555045E1
1.228684733E1,2.558389801E1,2.891611862E1,8.694968719E0,3.957625847E1
1.229687033E1,2.640344376E1,2.924139221E1,6.301296387E0,3.989871172E1
1.230689333E1,2.503977951E1,2.707883926E1,2.518063660E0,3.696748218E1
1.231691533E1,2.213536926E1,2.467259308E1,1.806742859E-1,3.314730856E1
1.232693833E1,1.947959198E1,2.219225098E1,3.403921509E-1,2.953076995E1
1.233696133E1,1.801129532E1,2.035781570E1,2.479144592E0,2.729457047E1
1.234698333E1,1.677576462E1,1.913620605E1,5.392236786E0,2.601339805E1
1.235700633E1,1.539802963E1,1.731853592E1,7.755222931E0,2.443715380E1
1.236702933E1,1.342049194E1,1.451082458E1,9.135802002E0,2.177467594E1
1.237705133E1,1.061068497E1,1.096514786E1,9.230554962E0,1.783323437E1
1.238707433E1,7.433990936E0,7.483388214E0,8.386909332E0,1.347611103E1
1.239709733E1,4.680167542E0,4.694238281E0,6.828649750E0,9.516842894E0
1.240711933E1,2.875969391E0,2.811004486E0,4.726271667E0,6.205690133E0
1.241714233E1,1.757644958E0,1.706900482E0,2.444566498E0,3.461030254E0
1.242716533E1,9.412426758E-1,9.990225220E-1,7.899073792E-1,1.583646880E0
1.243718733E1,3.162922668E-1,7.667056274E-1,9.879455566E-3,8.294431390E-1
1.244721033E1,1.534309387E-1,8.563691711E-1,-2.350112915E-1,9.011878369E-1
1.245723333E1,2.897973633E-1,8.671467590E-1,8.532257080E-3,9.143297069E-1
1.246725533E1,5.837860107E-1,7.779322815E-1,6.153703308E-1,1.150941087E0
1.247727833E1,9.208850098E-1,6.861730957E-1,1.043480072E0,1.551680824E0
1.248730133E1,1.016236725E0,5.252577209E-1,1.305734711E0,1.735965405E0
1.249732333E1,7.346722412E-1,3.113525391E-1,1.183888092E0,1.427681589E0
1.250734633E1,1.975891113E-1,3.861968994E-2,8.095166016E-1,8.341762797E-1
1.251736933E1,-5.399272156E-1,-1.992356873E-1,4.529580688E-1,7.323846457E-1
1.252739133E1,-1.128503265E0,-3.707789612E-1,-5.373825073E-2,1.189068735E0
1.253741433E1,-1.592987366E0,-4.992118835E-1,-6.566844177E-1,1.793893998E0
1.254743733E1,-1.549577637E0,-6.857240295E-1,-8.538244629E-1,1.897478461E0
1.255745933E1,-1.200353851E0,-9.839039612E-1,-5.040019226E-1,1.631849966E0
1.256748233E1,-9.041198730E-1,-1.302740936E0,2.844085693E-3,1.585741082E0
1.257750533E1,-5.957611084E-1,-1.266815643E0,4.436773682E-1,1.468537633E0
1.258752733E1,-2.296224976E-1,-8.524772644E-1,5.301974487E-1,1.029831691E0
1.259755033E1,-3.884422302E-1,-3.191363525E-1,3.146456909E-1,5.930744376E-1
1.260757433E1,-3.993695068E-1,4.722679138E-1,2.118095398E-1,6.537555098E-1
1.261759633E1,2.176473999E-1,1.321751404E0,3.040177917E-1,1.373617116E0
1.262761933E1,1.448088684E0,2.304008789E0,2.877017212E-1,2.736455667E0
1.263764233E1,3.222498779E0,3.796555023E0,8.978329468E-1,5.060082255E0
1.264766433E1,5.451064453E0,6.383176117E0,2.597997437E0,8.786844240E0
1.265768733E1,7.978857880E0,1.024424698E1,4.158951416E0,1.363464873E1
1.266771033E1,1.208571762E1,1.521406219E1,4.903952179E0,2.003948617E1
1.267773233E1,1.660990952E1,2.026036835E1,5.533542938E0,2.677670101E1
1.268775533E1,1.985965164E1,2.375754593E1,6.058201904E0,3.155199775E1
1.269777833E1,2.139905045E1,2.475162872E1,5.342390442E0,3.315273171E1
1.270780033E1,2.046978287E1,2.361159943E1,3.358116760E0,3.142923140E1
1.271782333E1,1.771101974E1,2.128663422E1,1.267863464E0,2.772018208E1
1.272784633E1,1.473341171E1,1.881317780E1,-3.186872864E-1,2.389792127E1
1.273786833E1,1.283790344E1,1.697664688E1,-8.705895996E-1,2.130202409E1
1.274789133E1,1.175236084E1,1.574171494E1,-3.216810608E-1,1.964746938E1
1.275791433E1,1.128637985E1,1.482442245E1,6.746470642E-1,1.864406125E1
1.276793633E1,1.125838806E1,1.416085236E1,1.730102234E0,1.817345028E1
1.277795933E1,1.141900406E1,1.365340759E1,2.913840637E0,1.803606553E1
1.278798233E1,1.145597717E1,1.280676819E1,3.821103973E0,1.760265775E1
1.279800433E1,1.104508163E1,1.160506714E1,4.119433594E0,1.654210219E1
1.280802733E1,1.045994843E1,1.001806732E1,3.663032684E0,1.493954492E1
1.281805033E1,9.587113495E0,8.191565552E0,2.866539001E0,1.293180332E1
1.282807233E1,8.409811707E0,6.209836578E0,2.096240845E0,1.066213998E1
1.283809533E1,7.213349762E0,4.213438110E0,1.583407288E0,8.502508697E0
1.284811833E1,6.082152100E0,2.505489807E0,1.252595215E0,6.696196540E0
1.285814033E1,4.957540741E0,1.094374237E0,8.394543457E-1,5.145828288E0
1.286816333E1,3.978875885E0,1.725910950E-1,4.061054993E-1,4.003268998E0
1.287818633E1,3.208727417E0,-3.725752258E-1,4.954696655E-2,3.230665386E0
1.288820833E1,2.636916504E0,-8.066725159E-1,-2.556683350E-1,2.769370956E0
1.289823133E1,2.360291748E0,-1.093476105E0,-4.745132446E-1,2.644206865E0
1.290825433E1,1.928290100E0,-1.372346191E0,-6.286926270E-1,2.448855079E0
1.291827633E1,1.463057556E0,-1.677711182E0,-6.150709534E-1,2.309451125E0
1.292829933E1,1.084045715E0,-2.120490417E0,-1.127305756E0,2.634853505E0
1.293832233E1,-4.296066284E-2,-2.276466064E0,-3.062631226E-1,2.297376865E0
1.294834433E1,-7.824229431E-1,-1.566791840E0,1.373244324E0,2.225493721E0
1.295836733E1,-7.066804504E-1,-8.520281982E-1,1.448388062E0,1.822958389E0
1.296839033E1,-7.723937988E-2,-5.415737915E-1,-9.400451660E-2,5.550720157E-1
1.297841233E1,2.398013306E-1,-1.890568542E-1,-1.732946320E0,1.759644884E0
1.298843533E1,3.055146790E-1,4.364923096E-1,-2.125280457E0,2.191045817E0
1.299845833E1,7.336244202E-1,1.264420624E0,-2.336042175E0,2.755731727E0
1.300848033E1,1.445843353E0,2.208357697E0,-2.509232025E0,3.641915989E0
1.301850333E1,2.020348663E0,3.183430023E0,-2.129322052E0,4.330132542E0
1.302852633E1,2.863844604E0,4.055666199E0,-1.654808807E0,5.233395305E0
1.303854833E1,3.407214661E0,5.268593903E0,-1.126707001E0,6.374689178E0
1.304857133E1,4.139192505E0,6.366560669E0,-1.866618347E-1,7.596107686E0
1.305859433E1,4.860392761E0,7.247329102E0,1.460363159E0,8.847590489E0
1.306861633E1,5.566624146E0,8.595575409E0,3.465443573E0,1.081112946E1
1.307863933E1,6.713688812E0,1.095032867E1,5.967640228E0,1.416319333E1
1.308866233E1,8.050708466E0,1.375324997E1,9.038504333E0,1.832103578E1
1.309868433E1,1.035202286E1,1.679911606E1,1.235979767E1,2.328388447E1
1.310870733E1,1.354712860E1,1.932241882E1,1.512454834E1,2.802913707E1
1.311873033E1,1.653311920E1,2.100267471E1,1.622850266E1,3.127012431E1
1.312875233E1,1.786040909E1,2.230661316E1,1.528396683E1,3.240646302E1
1.313877533E1,1.927511719E1,2.168929688E1,1.317560120E1,3.186772989E1
1.314879833E1,1.580458420E1,2.221126144E1,9.182953949E0,2.876545949E1
1.315882133E1,1.334639603E1,2.115026779E1,6.270310822E0,2.578326807E1
1.316884333E1,1.283520905E1,1.798060913E1,5.785469055E0,2.283673681E1
1.317886633E1,1.056068893E1,1.610141693E1,5.355113983E0,1.998652105E1
1.318888833E1,8.207133179E0,1.463012650E1,6.200555878E0,1.788419776E1
1.319891133E1,6.753206635E0,1.323607544E1,7.070846100E0,1.645589127E1
1.320893433E1,5.859265594E0,1.228435455E1,7.538922729E0,1.555865406E1
1.321895633E1,5.262306976E0,1.161734161E1,7.566016388E0,1.482899541E1
1.322897933E1,4.893623657E0,1.091515182E1,7.073390808E0,1.389679637E1
1.323900233E1,4.496649170E0,9.869276733E0,6.498286743E0,1.264318819E1
1.324902533E1,3.854933624E0,8.506061554E0,5.699996796E0,1.094091221E1
1.325904733E1,3.134481812E0,6.887627106E0,4.666096802E0,8.890266742E0
1.326907033E1,2.606978760E0,5.145549774E0,3.556903381E0,6.776767843E0
1.327909333E1,1.990261230E0,3.407064972E0,2.596799927E0,4.723621635E0
1.328911533E1,1.316063232E0,1.871707764E0,1.972747650E0,3.021100077E0
1.329913833E1,7.137158203E-1,5.072950745E-1,1.564995575E0,1.793306921E0
1.330916133E1,1.601669312E-1,-7.123686218E-1,1.328936462E0,1.516309540E0
1.331918333E1,-2.574645996E-1,-1.761686554E0,1.101559296E0,2.093623752E0
1.332920633E1,-6.366261292E-1,-2.642005920E0,9.854008484E-1,2.890761655E0
1.333922933E1,-1.011147308E0,-3.278033295E0,7.241940308E-1,3.506048795E0
1.334925133E1,-1.385967865E0,-3.700305176E0,3.353027344E-1,3.965550812E0
1.335927433E1,-1.812431030E0,-3.882626038E0,-1.321751404E-1,4.286859160E0
1.336929633E1,-2.159708862E0,-3.801345062E0,-7.734416199E-1,4.439907498E0
1.337931933E1,-2.299967194E0,-3.697012024E0,-1.280137939E0,4.538336715E0
1.338934233E1,-2.282303925E0,-3.526666260E0,-1.581760712E0,4.488680548E0
1.339936533E1,-2.044747925E0,-3.320095825E0,-1.785487061E0,4.288588860E0
1.340938733E1,-1.692680054E0,-3.110531616E0,-1.848955078E0,3.994897693E0
1.341941033E1,-1.153800659E0,-2.717898102E0,-1.709894257E0,3.412032301E0
1.342943333E1,-4.840933228E-1,-1.984123993E0,-1.482367401E0,2.523590196E0
1.343945533E1,3.382965088E-1,-1.015787659E0,-1.259181519E0,1.652817955E0
1.344947833E1,1.282532959E0,1.345701599E-1,-8.433462524E-1,1.540854575E0
1.345950033E1,2.251468048E0,1.390308838E0,-1.260379028E-1,2.649141859E0
1.346952333E1,2.869083710E0,2.614014130E0,4.710704041E-1,3.909810549E0
1.347954633E1,3.546275482E0,3.782933350E0,1.044527893E0,5.289394393E0
1.348956933E1,4.538412323E0,4.963677979E0,2.175126801E0,7.068695925E0
1.349959133E1,5.540877686E0,6.267317047E0,3.198249207E0,8.955969321E0
1.350961433E1,6.823111267E0,8.031099243E0,4.039200439E0,1.128576726E1
1.351963733E1,9.309141541E0,1.034334091E1,5.083578644E0,1.481511354E1
1.352965933E1,1.308623703E1,1.301812866E1,5.924080811E0,1.938597449E1
1.353968233E1,1.720013214E1,1.576791046E1,6.933132477E0,2.434214189E1
1.354970533E1,2.031515442E1,1.841006607E1,8.399034119E0,2.867367793E1
1.355972733E1,2.246094223E1,2.119113281E1,9.951904907E0,3.244377362E1
1.356975033E1,2.447320770E1,2.290372147E1,1.147034729E1,3.542721015E1
1.357977333E1,2.518153473E1,2.358974487E1,1.302291870E1,3.688064758E1
1.358979533E1,2.410721878E1,2.254776169E1,1.315614166E1,3.553369694E1
1.359981833E1,2.212084946E1,1.891721146E1,1.155701706E1,3.131704828E1
1.360984058E1,1.885045029E1,1.545446228E1,9.214987335E0,2.605946799E1
1.361986258E1,1.529639099E1,1.280886383E1,7.886949005E0,2.145345041E1
1.362988558E1,1.346210541E1,1.107202560E1,7.518714752E0,1.898286344E1
1.363990858E1,1.295436127E1,1.036774017E1,7.523355103E0,1.821829806E1
1.364993058E1,1.256786499E1,1.046039749E1,8.583450623E0,1.846745166E1
1.365995358E1,1.222148529E1,1.066726730E1,9.407037964E0,1.875227073E1
1.366997658E1,1.208062820E1,1.034423904E1,9.686357117E0,1.862177149E1
1.367999858E1,1.171448959E1,9.382189636E0,9.296268311E0,1.765432959E1
1.369002158E1,1.076486435E1,7.907456360E0,8.200696564E0,1.567359546E1
1.370004458E1,9.428443451E0,6.282585297E0,6.522236938E0,1.307310210E1
1.371006658E1,7.677684174E0,4.684957581E0,4.947062531E0,1.026494469E1
1.372008958E1,6.511758728E0,3.363505554E0,2.867586823E0,7.870147745E0
1.373011258E1,5.311554565E0,2.097887421E0,1.332528992E0,5.864245650E0
1.374013458E1,4.096980286E0,1.011147308E0,4.239184570E-1,4.241152343E0
1.375015758E1,2.869233398E0,1.234931946E-1,-3.489244080E-1,2.893008660E0
1.376018058E1,2.104922791E0,-6.319857788E-1,-1.562750244E0,2.696719174E0
1.377020258E1,1.273252258E0,-1.149160309E0,-2.306553497E0,2.874357279E0
1.378022558E1,5.550457764E-1,-1.502126312E0,-3.005599823E0,3.405596801E0
1.379024858E1,2.119592285E-1,-1.895807648E0,-3.542682953E0,4.023632172E0
1.380027058E1,-3.517684937E-2,-2.175126801E0,-3.622017975E0,4.225095054E0
1.381029358E1,-2.374063110E-1,-2.228565674E0,-3.301085358E0,3.989991386E0
1.382031658E1,-3.378474426E-1,-2.208507385E0,-2.661315765E0,3.474801774E0
1.383033858E1,-3.194357300E-1,-2.204316101E0,-2.213596802E0,3.140232389E0
1.384036158E1,-2.427951050E-1,-2.207160187E0,-1.922901306E0,2.937355100E0
1.385038458E1,-2.510279846E-1,-2.021695862E0,-1.628463593E0,2.608095642E0
1.386040658E1,-9.220825195E-2,-1.686542816E0,-1.444196777E0,2.222303617E0
1.387042958E1,-3.248245239E-2,-1.612446899E0,-1.296454010E0,2.069259073E0
1.388045258E1,4.385879517E-2,-1.603615265E0,-1.298100586E0,2.063630452E0
1.389047458E1,2.676434326E-1,-1.432970123E0,-1.353186035E0,1.989006995E0
1.390049758E1,8.214916992E-1,-1.052910461E0,-1.658700714E0,2.129496915E0
1.391052058E1,1.018931122E0,-7.453001404E-1,-1.875300293E0,2.260629142E0
1.392054258E1,7.590715027E-1,-3.992198181E-1,-2.005529480E0,2.181218582E0
1.393056558E1,6.756948853E-1,-1.890568542E-1,-2.077380066E0,2.192672801E0
1.394058858E1,4.778063965E-1,6.601272583E-2,-2.057770844E0,2.113546185E0
1.395061058E1,1.250499573E0,7.176077271E-1,-2.245779877E0,2.668752009E0
1.396063358E1,3.080743561E0,1.474284210E0,-2.499053192E0,4.231992637E0
1.397065658E1,5.394631805E0,3.241658936E0,-2.971620483E0,6.959952102E0
1.398067858E1,8.955127716E0,6.623426514E0,-4.602329407E0,1.205178523E1
1.399070158E1,1.305689804E1,1.197689392E1,-5.952072601E0,1.869106050E1
1.400072458E1,1.694521225E1,1.882425476E1,-3.928580475E0,2.563057803E1
1.401074658E1,1.947375412E1,2.517958878E1,3.855233002E0,3.206402364E1
1.402076958E1,2.650463333E1,3.018952057E1,2.434013443E1,4.697174560E1
1.403079258E1,3.852074570E1,3.045027832E1,5.595139847E1,7.444210025E1
1.404081458E1,4.340508865E1,2.528212555E1,7.501949615E1,9.028351121E1
1.405083758E1,3.334241409E1,2.027967819E1,6.141054611E1,7.276150836E1
1.406086058E1,1.937675583E1,1.560160629E1,3.212993546E1,4.063497924E1
1.407088258E1,1.186223236E1,9.299411774E0,1.534294418E1,2.150808109E1
1.408090558E1,9.054521027E0,3.459905090E0,1.504626114E1,1.789819177E1
1.409092858E1,3.217559052E0,3.387605438E0,1.474942841E1,1.547172244E1
1.410095058E1,5.029541016E-2,2.326162720E0,1.279958313E1,1.300933860E1
1.411097358E1,-2.694247284E0,2.662962341E-1,9.797725525E0,1.016490568E1
1.412099658E1,-5.813610535E0,-8.129594421E-1,6.033802643E0,8.418179425E0
1.413101858E1,-7.252568207E0,-1.255289612E0,4.133953400E0,8.441864031E0
1.414104158E1,-6.962770844E0,-1.113085327E0,4.071982269E0,8.142492024E0
1.415106458E1,-5.799689484E0,-3.565585327E-1,5.205724640E0,7.801480701E0
1.416108658E1,-3.706292725E0,5.926176453E-1,5.875431976E0,6.971979801E0
1.417110958E1,-1.705104218E0,1.343456268E0,5.856720886E0,6.246073541E0
1.418113258E1,-5.053491211E-1,1.824705505E0,4.940326538E0,5.290723412E0
1.419115458E1,1.215472412E-1,1.766775970E0,3.330274658E0,3.771869611E0
1.420117758E1,3.441343689E-1,1.595981140E0,1.568438416E0,2.263975116E0
1.421120058E1,6.508465576E-1,1.597927094E0,-3.126997375E-1,1.753497466E0
1.422122258E1,1.107247467E0,1.606159973E0,-1.728904724E0,2.606694911E0
1.423124558E1,1.043779449E0,1.786684570E0,-2.626587982E0,3.343752641E0
1.424126858E1,9.250762939E-1,2.077529755E0,-3.500021667E0,4.173972653E0
1.425129058E1,1.103205872E0,2.255060577E0,-4.057911530E0,4.771688106E0
1.426131358E1,9.657916260E-1,2.161804504E0,-4.514462128E0,5.097697567E0
1.427133658E1,8.123606873E-1,1.941612396E0,-4.689148865E0,5.139835178E0
1.428135858E1,5.269042969E-1,1.546733551E0,-4.588857422E0,4.871101031E0
1.429138158E1,2.106120300E-1,9.693841553E-1,-4.279450836E0,4.392921867E0
1.430140458E1,-1.517843628E-1,5.604345703E-1,-4.190984802E0,4.231013946E0
1.431142658E1,-4.186793518E-1,3.477268982E-1,-3.869303741E0,3.907392716E0
1.432144958E1,-7.783813477E-1,3.806584167E-1,-3.042572937E0,3.163546812E0
1.433147258E1,-8.428971863E-1,3.103047180E-1,-2.438878326E0,2.599017540E0
1.434149458E1,-7.200027466E-1,2.483335876E-1,-2.553539886E0,2.664702512E0
1.435151758E1,-2.245330811E-1,1.069226532E0,-3.003803558E0,3.196325437E0
1.436154058E1,5.897735596E-2,1.691482544E0,-2.667003937E0,3.158718336E0
1.437156258E1,5.900729370E-1,2.065554657E0,-1.979034576E0,2.920835491E0
1.438158558E1,9.472302246E-1,2.869981842E0,-1.259031830E0,3.274019246E0
1.439160858E1,1.436562653E0,4.314028931E0,-3.637435913E-1,4.561454513E0
1.440163058E1,2.518662415E0,5.906716919E0,3.424877930E-1,6.430417017E0
1.441165358E1,4.043242035E0,7.465575256E0,7.194039917E-1,8.520572878E0
1.442167658E1,5.380261688E0,8.495882721E0,1.322799225E0,1.014283180E1
1.443169858E1,5.313799896E0,9.024583282E0,2.645149384E0,1.080168450E1
1.444172158E1,5.285059662E0,7.906109161E0,4.939877472E0,1.071638032E1
1.445174458E1,5.914949799E0,5.739664307E0,8.773405609E0,1.203756717E1
1.446176658E1,6.322402496E0,5.662125549E0,1.351689148E1,1.596053866E1
1.447178958E1,8.352780304E0,7.851921844E0,1.871348511E1,2.194575449E1
1.448181258E1,1.159339142E1,8.440647583E0,2.589659775E1,2.960211194E1
1.449183458E1,1.551643341E1,7.699688416E0,3.483735535E1,3.890612079E1
1.450185758E1,1.891242142E1,7.862849121E0,4.170237946E1,4.646065575E1
1.451188058E1,1.925505890E1,8.475974121E0,4.121963333E1,4.627804666E1
1.452190258E1,1.826741272E1,8.050558777E0,3.410223404E1,3.951546824E1
1.453192558E1,1.647578842E1,7.856861572E0,2.519829987E1,3.111488702E1
1.454194858E1,1.471619751E1,8.430319061E0,1.892140274E1,2.540976644E1
1.455197058E1,1.350521576E1,9.448801117E0,1.640274033E1,2.325339944E1
1.456199358E1,1.274973679E1,9.545200653E0,1.657772644E1,2.298885942E1
1.457201658E1,1.193902267E1,8.951984253E0,1.745265701E1,2.296243718E1
1.458203858E1,1.030981064E1,8.007448425E0,1.781445465E1,2.208543004E1
1.459206158E1,8.437204742E0,6.798562317E0,1.683788544E1,2.002301824E1
1.460208458E1,6.964866486E0,5.741310883E0,1.475811035E1,1.729953285E1
1.461210621E1,5.973328400E0,4.995112610E0,1.239033417E1,1.463393942E1
1.462212921E1,5.310357056E0,4.534670105E0,9.663604431E0,1.192259937E1
1.463215221E1,4.730612640E0,4.111051025E0,7.142546997E0,9.502389915E0
1.464217421E1,4.315376129E0,3.729045410E0,5.094954987E0,7.647667430E0
1.465219721E1,4.121080170E0,3.171754303E0,3.434907074E0,6.232328115E0
1.466222021E1,4.094435577E0,2.196831665E0,2.138003998E0,5.114834617E0
1.467224221E1,3.792513428E0,9.403445435E-1,1.015637970E0,4.037192892E0
1.468226521E1,3.175047455E0,-1.508862305E-1,7.035369873E-3,3.178638465E0
1.469228821E1,2.444267120E0,-9.265731812E-1,-8.369096375E-1,2.744703510E0
1.470231021E1,1.770667877E0,-1.313069458E0,-1.585203552E0,2.715195469E0
1.471233321E1,1.237476654E0,-1.281036072E0,-2.386936340E0,2.978232190E0
1.472235621E1,7.146139526E-1,-1.192420349E0,-3.113525391E0,3.409777082E0
1.473237821E1,7.427554321E-1,-7.252418518E-1,-3.613635406E0,3.759790184E0
1.474240121E1,6.879693604E-1,-8.696914673E-2,-4.072131958E0,4.130753461E0
1.475242421E1,5.575904846E-1,-6.436614990E-3,-4.761448517E0,4.793990046E0
1.476244621E1,1.826202393E-1,7.439529419E-2,-5.622907104E0,5.626363756E0
1.477246921E1,-2.644999695E-1,1.378633118E-1,-6.681356049E0,6.688010554E0
1.478249221E1,-4.974156189E-1,-1.206491089E-1,-7.145690460E0,7.163998231E0
1.479251421E1,-7.741900635E-1,-3.833528137E-1,-7.066954193E0,7.119562571E0
1.480253721E1,-7.902067566E-1,-4.032614136E-1,-6.385571136E0,6.446903538E0
1.481256021E1,-5.843847656E-1,-4.628375244E-1,-5.233417053E0,5.286244242E0
1.482258221E1,-4.719685364E-1,-5.312452698E-1,-4.027075653E0,4.089292622E0
1.483260521E1,-5.351371765E-1,-3.367996216E-1,-3.134930878E0,3.198061505E0
1.484262821E1,-6.932084656E-1,1.916015625E-2,-2.579885101E0,2.671462563E0
1.485265021E1,-8.069718933E-1,5.047503662E-1,-2.385140076E0,2.568047848E0
1.486267321E1,-8.283773804E-1,8.849597168E-1,-2.245480499E0,2.551773003E0
1.487269621E1,-5.046006775E-1,1.034199371E0,-2.088906097E0,2.384893890E0
1.488271821E1,-6.271957397E-2,1.648072815E0,-1.559756470E0,2.270003963E0
1.489274121E1,2.255809021E-1,2.892435150E0,-4.055067444E-1,2.929420346E0
1.490276421E1,4.760101318E-1,4.418062592E0,1.298549652E0,4.629480954E0
1.491278621E1,4.950205994E-1,6.349346466E0,4.214785309E0,7.636992938E0
1.492280921E1,6.677613831E-1,8.706794128E0,9.452693024E0,1.286886066E1
1.493283221E1,2.158511353E0,1.082653610E1,1.759725632E1,2.077345626E1
1.494285421E1,4.897964630E0,1.334355194E1,2.879801422E1,3.211488843E1
1.495287721E1,9.454339600E0,1.693742844E1,4.006927551E1,4.451750060E1
1.496290021E1,1.522139694E1,2.083472397E1,4.661022354E1,5.327560029E1
1.497292221E1,1.897783539E1,2.467513779E1,4.595563477E1,5.550622512E1
1.498294521E1,1.928035629E1,2.738674896E1,3.805596222E1,5.069538853E1
1.499296821E1,1.833462296E1,2.594374969E1,2.767849228E1,4.213473012E1
1.500299021E1,1.635588776E1,2.307990509E1,2.007205994E1,3.468551100E1
1.501301321E1,1.322664505E1,2.074296478E1,1.544128967E1,2.904562194E1
1.502303621E1,9.962682495E0,1.784394333E1,1.262908768E1,2.402405485E1
1.503305921E1,6.432723083E0,1.412582520E1,1.029364426E1,1.862466042E1
1.504308121E1,3.334465942E0,1.064720901E1,8.432714081E0,1.398543491E1
1.505310421E1,1.523980865E0,8.379424896E0,7.774233398E0,1.153152133E1
1.506312721E1,7.785310364E-1,7.258705444E0,7.174281006E0,1.023548842E1
1.507314921E1,1.314716034E0,6.606511688E0,6.096522217E0,9.085265988E0
1.508317221E1,2.189796295E0,6.128256226E0,4.981640625E0,8.195576581E0
1.509319521E1,2.742447052E0,5.560935974E0,3.454366608E0,7.097723114E0
1.510321721E1,3.087329865E0,4.669988708E0,1.521885223E0,5.801425244E0
1.511324021E1,3.011287994E0,3.262465668E0,-5.818400574E-1,4.477731063E0
1.512326321E1,1.501826935E0,1.405277710E0,-1.803000641E0,2.735160122E0
1.513328521E1,-3.161425781E-1,-8.232879639E-3,-1.246008911E0,1.285516284E0
1.514330821E1,6.752458191E-1,-8.746311951E-1,-1.122964783E0,1.575432178E0
1.515333121E1,1.747615814E0,-2.322121124E0,-4.604425049E-1,2.942518454E0
1.516335321E1,1.505718842E0,-3.186274109E0,4.207749939E-1,3.549166595E0
1.517337621E1,5.529501343E-1,-4.315825195E0,3.546125793E-1,4.365529870E0
1.518339921E1,-8.003855896E-1,-5.038672028E0,-8.771759033E-2,5.102600050E0
1.519342121E1,-2.069895630E0,-5.339696045E0,-5.915698242E-1,5.757323738E0
1.520344421E1,-3.030897217E0,-5.236410828E0,-1.409169617E0,6.212253641E0
1.521346721E1,-3.544030151E0,-4.785249023E0,-2.265239410E0,6.371033473E0
1.522348921E1,-3.761827240E0,-4.052672424E0,-1.873504028E0,5.838280167E0
1.523351221E1,-3.398083649E0,-3.996539154E0,-9.773176575E-1,5.336145378E0
1.524353521E1,-2.495161285E0,-4.002526703E0,-4.968168640E-1,4.742665584E0
1.525355721E1,-2.154020691E0,-3.542533264E0,-5.059478760E-1,4.176760745E0
1.526358021E1,-1.923649750E0,-2.773282928E0,-7.559280396E-1,3.458750318E0
1.527360321E1,-1.385518799E0,-1.947899323E0,-1.351838837E0,2.746168668E0
1.528362521E1,-8.710386658E-1,-1.157393188E0,-2.115700378E0,2.564070093E0
1.529364821E1,-6.301895142E-2,-3.448828125E-1,-2.877615967E0,2.898894478E0
1.530367121E1,6.852749634E-1,3.725752258E-1,-3.364703064E0,3.453931207E0
1.531369321E1,1.314716034E0,9.803114319E-1,-3.390449524E0,3.766249690E0
1.532371621E1,1.822909241E0,1.403481445E0,-2.735261993E0,3.574131564E0
1.533373921E1,2.336491241E0,2.145787811E0,-1.814975739E0,3.654823331E0
1.534376121E1,3.491788788E0,3.757037201E0,-1.349892883E0,5.303784334E0
1.535378421E1,6.303092651E0,6.260131989E0,-1.002615051E0,8.939992529E0
1.536380721E1,9.915081482E0,1.066741699E1,2.561174011E-1,1.456599541E1
1.537382921E1,1.527902710E1,1.677441742E1,1.723066864E0,2.275519080E1
1.538385221E1,2.201412140E1,2.355666367E1,3.232378235E0,3.240349075E1
1.539387521E1,2.728331406E1,3.026286804E1,5.307662659E0,4.109004370E1
1.540389821E1,2.964839584E1,3.482837402E1,7.062912598E0,4.628096528E1
1.541392021E1,2.895488800E1,3.472089752E1,7.380851440E0,4.580833147E1
1.542394321E1,2.582235214E1,3.061628311E1,6.584956512E0,4.058955917E1
1.543396621E1,2.152209457E1,2.609179184E1,6.494544525E0,3.444069199E1
1.544398821E1,1.786968979E1,2.173944260E1,7.131320343E0,2.903075795E1
1.545401121E1,1.471140747E1,1.806084229E1,7.567812653E0,2.449267895E1
1.546403421E1,1.223346039E1,1.568992264E1,7.579638062E0,2.129042364E1
1.547405621E1,1.072280182E1,1.418525162E1,7.277416534E0,1.921355339E1
1.548407921E1,9.838440857E0,1.306468185E1,6.984924774E0,1.778398168E1
1.549410221E1,9.490713959E0,1.206356369E1,6.613696747E0,1.671359342E1
1.550412421E1,9.180558929E0,1.083057770E1,5.999523926E0,1.541357722E1
1.551414721E1,8.709638214E0,9.367071075E0,5.209466858E0,1.381080603E1
1.552417021E1,8.088879089E0,7.799530792E0,4.241579590E0,1.201056381E1
1.553419221E1,7.374714203E0,6.012097778E0,3.008892975E0,9.979236755E0
1.554421521E1,6.551725616E0,4.190835114E0,1.871707764E0,7.999468573E0
1.555423821E1,5.376669159E0,2.466271362E0,1.127156067E0,6.021756096E0
1.556426021E1,3.856580200E0,8.229885864E-1,7.247927856E-1,4.009469496E0
1.557428321E1,2.350262604E0,-4.411326599E-1,5.942642212E-1,2.464037803E0
1.558430621E1,1.115031281E0,-1.452729034E0,3.493734741E-1,1.864343914E0
1.559432821E1,2.017803955E-1,-2.310445404E0,3.167413330E-1,2.340768755E0
1.560435058E1,-3.694317627E-1,-3.109334106E0,4.342469788E-1,3.161172069E0
1.561437358E1,-8.292755127E-1,-3.748205566E0,5.450166321E-1,3.877342643E0
1.562439558E1,-1.451531525E0,-4.166884918E0,6.890171814E-1,4.465939808E0
1.563441858E1,-2.154918823E0,-4.538112946E0,3.037184143E-1,5.032930470E0
1.564444158E1,-2.881507874E0,-4.769232330E0,-7.149133301E-1,5.617807910E0
1.565446458E1,-3.477867737E0,-4.879253540E0,-1.924847260E0,6.293466142E0
1.566448658E1,-3.791016541E0,-4.670437775E0,-3.058889008E0,6.748451480E0
1.567450958E1,-3.680995331E0,-4.078568573E0,-3.858077087E0,6.713360339E0
1.568453258E1,-3.157084808E0,-3.294349365E0,-3.696263580E0,5.872162011E0
1.569455458E1,-2.327958984E0,-2.516117706E0,-2.571502533E0,4.285191550E0
1.570457758E1,-1.589993591E0,-2.127226410E0,-1.334175568E0,2.972069357E0
1.571460058E1,-1.291813660E0,-1.582060089E0,-1.875599670E-1,2.051066893E0
1.572462258E1,-1.250050507E0,-8.364605713E-1,7.427554321E-1,1.677491636E0
1.573464558E1,-1.143621826E0,-3.427871704E-1,1.140029297E0,1.650769737E0
1.574466858E1,-9.593550110E-1,4.101470947E-1,6.312373352E-1,1.219443828E0
1.575469058E1,-6.036946106E-1,1.378034363E0,3.173400879E-2,1.504803288E0
1.576471358E1,6.242019653E-1,3.071462860E0,-6.108796692E-1,3.193225041E0
1.577473658E1,3.604803772E0,5.740412750E0,-4.616400146E-1,6.794119537E0
1.578475858E1,7.440427551E0,8.518785095E0,1.921554108E0,1.147266455E1
1.579478158E1,1.168036057E1,1.411609543E1,2.010469208E0,1.843195485E1
1.580480458E1,1.151794830E1,1.817580322E1,5.074896698E0,2.210831365E1
1.581482658E1,1.124057510E1,1.891287048E1,1.164398621E1,2.489236054E1
1.582484958E1,1.245574814E1,1.816472626E1,1.756806702E1,2.817339029E1
1.583487258E1,1.290900558E1,1.725446915E1,2.359797775E1,3.195659063E1
1.584489458E1,1.352916595E1,1.675840073E1,2.759676224E1,3.500662241E1
1.585491758E1,1.502246063E1,1.665556458E1,2.914813614E1,3.677901569E1
1.586494058E1,1.697380280E1,1.702439758E1,2.892629745E1,3.761210947E1
1.587496258E1,1.612072678E1,1.606249786E1,2.771112442E1,3.585788736E1
1.588498558E1,1.507515106E1,1.457758575E1,2.479159561E1,3.247136275E1
1.589500858E1,1.358604767E1,1.237880814E1,2.118873779E1,2.804956669E1
1.590503158E1,1.165730850E1,1.002555176E1,1.783316574E1,2.354625936E1
1.591505358E1,9.113648071E0,8.005053406E0,1.517214935E1,1.942507599E1
1.592507658E1,7.934699707E0,5.912405090E0,1.284838165E1,1.621717930E1
1.593509958E1,5.219346313E0,4.764142914E0,1.147094604E1,1.347298173E1
1.594512158E1,2.058070221E0,2.983445892E0,1.124027573E1,1.181018208E1
1.595514458E1,3.186872864E-1,-1.808239746E-1,1.051114197E1,1.051752653E1
1.596516758E1,-1.042581940E0,-2.257904663E0,1.023960663E1,1.053729825E1
1.597518958E1,-1.654659119E0,-3.517984314E0,1.035471725E1,1.106048280E1
1.598521258E1,-1.943109283E0,-4.618346100E0,1.005953110E1,1.123828102E1
1.599523558E1,-1.715881805E0,-5.425317993E0,8.705596619E0,1.040027587E1
1.600525758E1,-8.508306885E-1,-5.651497650E0,6.736890564E0,8.834536378E0
1.601528058E1,-2.923420715E-1,-5.267695770E0,4.980892181E0,7.255575066E0
1.602530358E1,4.733157349E-1,-5.030888214E0,3.208278351E0,5.985558786E0
1.603532558E1,3.594026184E-1,-4.944517822E0,1.930984497E0,5.320350352E0
1.604534858E1,-1.616638184E-1,-4.882397003E0,-3.068618774E-1,4.894701206E0
1.605537158E1,3.592529297E-3,-4.922363892E0,-2.752326508E0,5.639590445E0
1.606539358E1,-4.025129700E-1,-4.634063416E0,-3.935915222E0,6.093274084E0
1.607541658E1,-7.032376099E-1,-4.066144409E0,-4.521647186E0,6.121549377E0
1.608543958E1,-1.055006104E0,-2.512076111E0,-4.159400482E0,4.972341162E0
1.609546158E1,-1.148112488E-1,5.463338928E0,-5.840853882E-1,5.495671898E0
1.610548458E1,5.240602112E-1,8.357869720E0,5.776487732E-1,8.394182716E0
1.611550758E1,-2.942880249E-1,3.819307709E0,-1.851350098E0,4.254552150E0
1.612553058E1,-1.424587555E0,2.075434113E0,-3.020119629E0,3.931666190E0
1.613555258E1,-1.967807922E0,2.833757172E0,-2.423310699E0,4.216026859E0
1.614557558E1,-2.242486725E0,3.751798096E0,-1.856888580E0,4.748975770E0
1.615559858E1,-2.290237427E0,4.567901001E0,-1.431922302E0,5.306722954E0
1.616562058E1,-1.023421783E0,7.560926971E0,4.138893127E-1,7.641093716E0
1.617564358E1,-5.821394348E-1,8.991352386E0,8.057743835E-1,9.046135994E0
1.618566658E1,-1.352736969E0,7.406298523E0,1.133892059E0,7.613728805E0
1.619568858E1,-1.873803406E0,5.180277557E0,1.482367401E0,5.704719790E0
1.620571158E1,-2.211950226E0,2.441872101E0,2.071242828E0,3.891723270E0
1.621573458E1,-2.643802185E0,-9.145980835E-2,2.653232574E0,3.746691605E0
1.622575658E1,-2.314187622E0,-1.886377258E0,3.302881622E0,4.452292726E0
1.623577958E1,-1.400038605E0,-2.819686432E0,4.182452545E0,5.234849469E0
1.624580258E1,2.966381378E0,8.051756287E-1,7.017706604E0,7.661327056E0
1.625582558E1,9.486971741E0,8.572822723E0,1.523876083E1,1.989260551E1
1.626584758E1,1.132754425E1,1.733081039E1,2.796439774E1,3.479479542E1
1.627587058E1,1.358365265E1,2.163301392E1,3.613171371E1,4.424933498E1
1.628589358E1,1.573213486E1,2.065809128E1,3.962739441E1,4.737707452E1
1.629591558E1,1.681079178E1,1.730551300E1,4.025638641E1,4.693250630E1
1.630593858E1,1.525058624E1,1.329041245E1,3.860112854E1,4.358052969E1
1.631596158E1,1.153351593E1,1.223405914E1,3.636253372E1,4.006155328E1
1.632598358E1,7.746690674E0,1.141660904E1,3.246119659E1,3.527151064E1
1.633600658E1,6.425687714E0,1.054572006E1,2.773851746E1,3.036325122E1
1.634602958E1,5.093607788E0,8.933572540E0,2.287797501E1,2.508296831E1
1.635605158E1,3.124452667E0,6.859785004E0,1.789378967E1,1.941665686E1
1.636607458E1,1.787882080E0,5.151537323E0,1.393886398E1,1.496752445E1
1.637609758E1,7.488926697E-1,3.655697937E0,1.120914047E1,1.181396622E1
1.638611958E1,-1.266366577E-1,2.277813263E0,9.135502625E0,9.416043665E0
1.639614258E1,-7.482939148E-1,8.515791321E-1,7.833210754E0,7.914816582E0
1.640616558E1,-5.760021973E-1,-8.665480042E-1,6.766079865E0,6.845620549E0
1.641618858E1,-3.167413330E-1,-2.651585999E0,5.539081421E0,6.149199653E0
1.642621058E1,-6.789880371E-1,-3.893852692E0,4.136498108E0,5.721339890E0
1.643623358E1,-1.742077332E0,-5.187761993E0,3.571872253E0,6.534981203E0
1.644625658E1,-2.392923889E0,-6.241869965E0,3.548969879E0,7.568501344E0
1.645627858E1,-2.135159912E0,-5.686225433E0,2.698288879E0,6.646264395E0
1.646630158E1,-1.425036621E0,-5.543272705E0,1.450932770E0,5.904558202E0
1.647632458E1,-4.652325439E-1,-5.505251770E0,-9.295669556E-2,5.525656460E0
1.648634658E1,-1.088237000E-1,-4.550088043E0,-1.552721100E0,4.808958995E0
1.649636958E1,7.589218140E-2,-3.871249695E0,-2.893782349E0,4.833871130E0
1.650639258E1,-1.716929626E-1,-3.513194275E0,-3.787274323E0,5.168699960E0
1.651641458E1,-6.926097107E-1,-3.128643951E0,-2.926863556E0,4.339890720E0
1.652643758E1,-1.716031494E0,-2.897374878E0,-1.680555267E0,3.763483928E0
1.653646058E1,-2.809657288E0,-2.669249268E0,-2.145638123E0,4.429766210E0
1.654648358E1,-2.191143494E0,-1.902843018E0,-1.513352966E0,3.272943409E0
1.655650558E1,-1.023721161E0,-8.753796387E-1,-2.520758057E-1,1.370341833E0
1.656652858E1,2.484832764E-2,-1.877096558E-1,1.091679840E0,1.107978893E0
1.657655158E1,5.632786560E-1,6.298901367E-1,2.074236603E0,2.239754878E0
1.658657358E1,1.380878448E0,1.442999268E0,3.428620148E0,3.967935016E0
1.659659658E1,2.036515045E0,2.261796570E0,4.906047821E0,5.773423809E0
1.660662008E1,1.668131104E0,3.319946136E0,5.838309174E0,6.920300408E0
1.661664208E1,1.454225922E0,4.153113556E0,6.452032928E0,7.809728174E0
1.662666508E1,1.706750793E0,4.939578094E0,7.015610962E0,8.748212800E0
1.663668808E1,1.450034637E0,6.134393463E0,7.621401215E0,9.890355913E0
1.664671108E1,9.277706909E-1,7.559729462E0,8.554111633E0,1.145351884E1
1.665673308E1,9.286688232E-1,9.022637329E0,9.378896484E0,1.304737941E1
1.666675608E1,1.085392914E0,1.053449341E1,1.049213150E1,1.490766422E1
1.667677908E1,1.169517975E0,1.189710983E1,1.283685562E1,1.754120455E1
1.668680108E1,1.989662476E0,1.220666611E1,1.617072281E1,2.035813671E1
1.669682408E1,2.692750397E0,1.252041367E1,1.952345078E1,2.334902125E1
1.670684708E1,2.510579224E0,1.274584488E1,2.180171310E1,2.537861824E1
1.671686908E1,2.072590027E0,1.355566086E1,2.221111176E1,2.610335335E1
1.672689208E1,1.922452240E0,1.448088684E1,2.095746872E1,2.554618174E1
1.673691508E1,1.332379303E0,1.501961655E1,1.904444687E1,2.429104922E1
1.674693808E1,1.930984497E-2,1.537812103E1,1.720836502E1,2.307844895E1
1.675696008E1,-1.068178711E0,1.504341705E1,1.599603607E1,2.198450755E1
1.676698308E1,-7.005432129E-1,1.385638550E1,1.494941254E1,2.039546800E1
1.677700608E1,1.230441284E-1,1.233944000E1,1.439152267E1,1.895765925E1
