"Time (s)","Acceleration x (m/s^2)","Acceleration y (m/s^2)","Acceleration z (m/s^2)","Absolute acceleration (m/s^2)"
1.091912505E-2,-7.490423584E-1,4.968318329E0,7.782017212E0,9.263101174E0
2.093712497E-2,-7.768844604E-1,4.788392487E0,7.728877716E0,9.125119332E0
3.095512500E-2,-9.199868774E-1,4.607718201E0,7.729925537E0,9.045948910E0
4.097312503E-2,-1.113384705E0,4.468507690E0,7.952961731E0,9.190037365E0
5.099112506E-2,-1.437460785E0,4.425547028E0,8.498128052E0,9.688650081E0
6.100912497E-2,-1.585951996E0,4.462220764E0,9.013955383E0,1.018224187E1
7.102712500E-2,-1.549427948E0,4.503235474E0,9.235195312E0,1.039079829E1
8.104512503E-2,-1.484313354E0,4.451143799E0,9.338630219E0,1.045111868E1
9.106312506E-2,-1.404229889E0,4.389322357E0,9.540111237E0,1.059489192E1
1.010811250E-1,-1.250200195E0,4.345463562E0,9.784552917E0,1.077884641E1
1.110991250E-1,-1.209634552E0,4.309687958E0,9.837842102E0,1.080831917E1
1.211171250E-1,-1.298250275E0,4.265230408E0,9.696386261E0,1.067227955E1
1.311351251E-1,-1.395098877E0,4.344116364E0,9.507329407E0,1.054547108E1
1.411531250E-1,-1.468895416E0,4.409081268E0,9.306746521E0,1.040255652E1
1.511721250E-1,-1.558259583E0,4.362677765E0,9.042246552E0,1.015988941E1
1.611901250E-1,-1.659149780E0,4.238585815E0,8.875193939E0,9.974339836E0
1.712081250E-1,-1.673070831E0,4.157454529E0,8.972790985E0,1.002968455E1
1.812261250E-1,-1.598076782E0,4.123475189E0,9.321416016E0,1.031725223E1
1.912441250E-1,-1.595981140E0,4.103566589E0,9.744136963E0,1.069273677E1
2.012621250E-1,-1.615889740E0,4.027524719E0,1.020622604E1,1.109049616E1
2.112801250E-1,-1.590143280E0,3.880380707E0,1.067041077E1,1.146488447E1
2.212981250E-1,-1.676813049E0,3.614084473E0,1.095676529E1,1.165864547E1
2.313161250E-1,-1.879042511E0,3.349883881E0,1.111079498E1,1.175594692E1
2.413341251E-1,-2.093247070E0,3.172053680E0,1.120045853E1,1.182767429E1
2.513521250E-1,-2.142045593E0,3.096610565E0,1.131721573E1,1.192714250E1
2.613701250E-1,-2.162852325E0,3.054398346E0,1.144145737E1,1.203803249E1
2.713881250E-1,-2.278711395E0,3.014281769E0,1.154653885E1,1.214911435E1
2.814061251E-1,-2.330354004E0,2.946323090E0,1.156045990E1,1.215547624E1
2.914241250E-1,-2.280357971E0,2.878663788E0,1.132844238E1,1.190883472E1
3.014421250E-1,-2.112556915E0,2.825973358E0,1.086994583E1,1.142824328E1
3.114601250E-1,-1.845512238E0,2.715203705E0,1.029783554E1,1.080849959E1
3.214791251E-1,-1.694476318E0,2.723286896E0,9.571096802E0,1.009422783E1
3.314971250E-1,-1.680106201E0,2.854563904E0,8.693621521E0,9.303243901E0
3.415151250E-1,-1.653760986E0,2.725981293E0,8.180488586E0,8.779880006E0
3.515331250E-1,-1.454974365E0,2.569855957E0,7.435936890E0,8.000891667E0
3.615511251E-1,-1.208736420E0,2.284998322E0,6.899602203E0,7.367955729E0
3.715691250E-1,-1.597627716E0,1.872755585E0,7.104975128E0,7.519328386E0
3.815871250E-1,-1.725461884E0,2.315385132E0,7.003785553E0,7.575700568E0
3.916051250E-1,-1.758094025E0,2.592608643E0,6.716233521E0,7.410823630E0
4.016231251E-1,-1.589095459E0,2.484982452E0,6.782695313E0,7.396304339E0
4.116411250E-1,-1.450483704E0,2.303260345E0,7.443271637E0,7.925351970E0
4.216591250E-1,-1.332528992E0,1.960772552E0,8.176446991E0,8.513198454E0
4.316771250E-1,-1.348096619E0,1.687890015E0,8.576115875E0,8.843986697E0
4.416951250E-1,-1.567390594E0,1.462758179E0,9.080417175E0,9.330077751E0
4.517131250E-1,-2.004930725E0,8.261320496E-1,8.946595459E0,9.205640210E0
4.617311250E-1,-2.369273071E0,5.764512634E-1,8.262817383E0,8.615097332E0
4.717491250E-1,-2.510279846E0,3.697311401E-1,7.680977325E0,8.089228560E0
4.817671250E-1,-2.338437195E0,-1.529818726E-1,8.183931427E0,8.512838867E0
4.917861250E-1,-1.886526947E0,-7.240443420E-1,8.435857544E0,8.674498062E0
5.018041250E-1,-1.413360901E0,-6.598278809E-1,8.391998749E0,8.535725210E0
5.118221251E-1,-8.310717773E-1,7.110214233E-2,8.328979797E0,8.370641569E0
5.218401250E-1,-4.147874451E-1,9.400451660E-2,7.252568207E0,7.265027947E0
5.318581250E-1,-5.598358154E-2,-7.394622803E-2,6.646777954E0,6.647425019E0
5.418761250E-1,-6.671626282E-1,-1.266366577E-1,6.568191376E0,6.603202311E0
5.518941251E-1,-1.208137665E0,-5.818400574E-1,7.358996887E0,7.480171766E0
5.619121250E-1,-8.393046570E-1,-1.095422058E0,8.233179016E0,8.348030816E0
5.719301250E-1,-1.156794434E0,-7.894583130E-1,9.087751923E0,9.195034138E0
5.819481250E-1,-1.833237762E0,-4.921765137E-1,1.024649231E1,1.042082545E1
5.919661251E-1,-2.018552399E0,-7.499404907E-1,1.199246155E1,1.218425617E1
6.019841250E-1,-1.157093811E0,2.727328491E-1,9.540410614E0,9.614191801E0
6.120021250E-1,3.453318787E-1,4.846920776E-1,9.331295471E0,9.350254311E0
6.220201250E-1,1.361269226E0,-2.503094788E0,6.787335663E0,7.361145483E0
6.320381251E-1,1.421893158E0,-2.906954956E0,3.556604004E0,4.808492415E0
6.420561250E-1,1.578317871E0,-2.011816406E0,3.542682953E0,4.369106895E0
6.520741250E-1,2.004182281E0,-4.673281860E-1,5.434748383E0,5.811336527E0
6.620931251E-1,1.528920593E0,1.975292358E0,1.062430664E1,1.091399421E1
6.721111250E-1,-5.653742981E-1,4.727918243E0,9.667646027E0,1.077665248E1
6.821291250E-1,2.349963226E0,2.844235382E0,8.765921173E0,9.510697981E0
6.921471250E-1,-3.424877930E-1,5.557942200E-1,7.644453278E0,7.672279389E0
7.021651251E-1,1.016536102E0,1.425485687E0,9.036259003E0,9.204310504E0
7.121831250E-1,4.446952515E0,1.378483429E0,9.284293213E0,1.038622663E1
7.222011250E-1,4.091890869E0,-1.883084106E-1,7.616611176E0,8.648225063E0
7.322191250E-1,3.231480103E0,-8.220904541E-1,6.315965881E0,7.142109029E0
7.422371251E-1,3.502117310E0,-1.532812500E0,5.907615051E0,7.036636654E0
7.522551250E-1,3.795357513E0,-2.964585114E0,6.483916626E0,8.076798769E0
7.622731250E-1,3.842958527E0,-4.517904968E0,6.224805450E0,8.598139243E0
7.722911250E-1,3.881278839E0,-5.434598694E0,5.013224945E0,8.350545655E0
7.823091251E-1,4.401447144E0,-4.494703217E0,3.966302032E0,7.436843805E0
7.923271250E-1,5.207071838E0,-2.576142883E0,3.844455414E0,6.966343856E0
8.023451250E-1,6.227050781E0,-1.615590363E0,5.753884735E0,8.630960734E0
8.123631250E-1,7.019951935E0,-1.891466675E0,7.931107178E0,1.075917434E1
8.223811251E-1,7.877967682E0,-3.562292175E0,5.807922363E0,1.041557788E1
8.324001250E-1,8.511001282E0,-3.722459106E0,7.786956940E0,1.212149096E1
8.424181250E-1,7.905510406E0,-3.733236694E0,8.713380432E0,1.234330383E1
8.524361250E-1,7.527396698E0,-4.217479706E0,9.068442078E0,1.251740699E1
8.624541250E-1,7.060517578E0,-4.878505096E0,8.298592987E0,1.193806375E1
8.724721250E-1,7.309749298E0,-5.532944183E0,6.636150055E0,1.131743759E1
8.824901250E-1,7.969128113E0,-5.951174469E0,5.891748047E0,1.156011140E1
8.925081250E-1,8.361611938E0,-6.003565521E0,5.623206482E0,1.172944177E1
9.025261250E-1,8.913663940E0,-5.775140533E0,5.379513245E0,1.190566318E1
9.125441250E-1,9.542955322E0,-5.411247253E0,6.029910736E0,1.251836318E1
9.225618750E-1,9.803862762E0,-4.800367584E0,6.694678345E0,1.280538840E1
9.325798750E-1,1.085557571E1,-4.637057190E0,8.845854950E0,1.475110075E1
9.425978750E-1,1.166628983E1,-5.885760498E0,1.034753220E1,1.666781082E1
9.526158751E-1,1.192285629E1,-7.471712494E0,1.218885315E1,1.861583011E1
9.626338750E-1,1.279329620E1,-7.950267334E0,1.419183792E1,2.069501008E1
9.726518750E-1,1.397374146E1,-8.329279175E0,1.405786652E1,2.150037099E1
9.826708750E-1,1.444196777E1,-9.181307373E0,1.437999664E1,2.235287771E1
9.926888751E-1,1.455333618E1,-8.982371063E0,1.544233749E1,2.304231697E1
1.002706875E0,1.488025635E1,-6.860533447E0,1.472023911E1,2.202667445E1
1.012724875E0,1.536345154E1,-4.442761230E0,1.408600800E1,2.131171959E1
1.022742875E0,1.435904022E1,-2.230062561E0,1.357452164E1,1.988524209E1
1.032760875E0,1.427296921E1,-4.984634399E-1,1.320015015E1,1.944762401E1
1.042778875E0,1.502425690E1,-1.759890289E0,1.393033173E1,2.056403781E1
1.052796875E0,1.585323303E1,-1.087638245E0,1.387315063E1,2.109436567E1
1.062814875E0,1.594439346E1,-1.613195343E0,1.456965225E1,2.165873609E1
1.072832875E0,1.521705597E1,-1.607507172E0,1.420860306E1,2.088126607E1
1.082850875E0,1.455423431E1,-1.409768372E0,1.249047592E1,1.923083909E1
1.092868875E0,1.420336395E1,4.626878357E-1,1.008931915E1,1.742825260E1
1.102886875E0,1.316916458E1,4.370910645E-1,9.916428680E0,1.649101277E1
1.112904875E0,1.303085220E1,-9.113049316E-1,1.030352371E1,1.663719287E1
1.122922875E0,1.254885452E1,-8.412506104E-1,9.049132233E0,1.549413588E1
1.132940875E0,1.160461807E1,-9.650431824E-1,9.000184021E0,1.471739723E1
1.142958875E0,1.138502472E1,-2.207459564E0,9.297914886E0,1.486414770E1
1.152977875E0,1.123428818E1,-3.032693481E0,9.709259491E0,1.515507111E1
1.162995875E0,1.112142288E1,-3.031495972E0,1.045635590E1,1.556314214E1
1.173013875E0,1.092907288E1,-1.846110992E0,9.876761169E0,1.484598164E1
1.183031875E0,1.053883438E1,6.801855469E-1,7.655679932E0,1.304373864E1
1.193049875E0,1.023092468E1,2.795586548E0,6.375092926E0,1.237452762E1
1.203067875E0,1.040965302E1,3.440146179E0,6.617438965E0,1.280570108E1
1.213085875E0,1.022508682E1,1.891017609E0,5.665119324E0,1.184153390E1
1.223103875E0,9.465416565E0,-1.849104767E0,4.842130737E0,1.079164164E1
1.233121875E0,8.286767578E0,-4.773124237E0,5.165907440E0,1.086921485E1
1.243139875E0,6.623875580E0,-9.389225006E0,6.499783630E0,1.320153253E1
1.253157875E0,5.253924408E0,-1.221968903E1,8.548124084E0,1.581122851E1
1.263175875E0,4.034560089E0,-9.883347473E0,7.511380005E0,1.305293308E1
1.273193875E0,2.685565338E0,-8.991951141E0,7.381450195E0,1.193956672E1
1.283211875E0,2.724334717E0,-7.877219238E0,6.395300903E0,1.050582963E1
1.293229875E0,1.342857513E0,-6.812782745E0,7.319479065E0,1.008920457E1
1.303247875E0,2.210902405E-1,-6.245312805E0,7.965984650E0,1.012470861E1
1.313266875E0,3.778143311E-1,-5.641618195E0,5.764512634E0,8.074664416E0
1.323284875E0,7.051835632E-1,-4.582869873E0,2.694247284E0,5.362737040E0
1.333302875E0,5.662724304E-1,-5.888305206E0,5.722300415E0,8.230280962E0
1.343320875E0,7.831713867E-1,-5.541476440E0,4.498744812E0,7.180530861E0
1.353338875E0,5.542973328E-1,-4.542304230E0,-2.785707092E-1,4.584471059E0
1.363356875E0,-1.797761536E-1,-3.945046234E0,-1.531315613E0,4.235638885E0
1.373374875E0,3.754193115E-1,-3.685036926E0,-1.410965881E0,3.963743373E0
1.383392875E0,1.245410156E0,-4.212090912E0,-2.805166626E-1,4.401300479E0
1.393410875E0,2.554587708E0,-4.253704376E0,-1.335373077E0,5.138398635E0
1.403428875E0,3.697461090E0,-3.490591278E0,-2.317630463E0,5.588099583E0
1.413446875E0,4.464166718E0,-5.182971954E0,-7.086264038E-1,6.877073080E0
1.423464875E0,5.129233704E0,-8.159532166E0,-4.340972900E-3,9.637791365E0
1.433482875E0,5.024601288E0,-9.048234100E0,1.484762421E0,1.045570074E1
1.443500875E0,4.337829437E0,-9.808652802E0,4.131109314E0,1.149315005E1
1.453518875E0,5.250331879E0,-9.788893890E0,5.442981262E0,1.236990192E1
1.463536875E0,5.638325043E0,-8.503666534E0,6.113137665E0,1.189426357E1
1.473555875E0,6.462810516E0,-7.346423035E0,7.029382324E0,1.204782416E1
1.483573875E0,6.448440399E0,-6.837780762E0,7.394024048E0,1.195864628E1
1.493591875E0,5.775439911E0,-7.371271362E0,6.997648315E0,1.169009964E1
1.503609875E0,5.555547180E0,-8.612340546E0,7.560178528E0,1.273549424E1
1.513627875E0,5.710624695E0,-1.006836273E1,8.379724274E0,1.428995946E1
1.523645875E0,5.607638855E0,-8.823102264E0,7.626041565E0,1.294021859E1
1.533663875E0,5.139562225E0,-8.275391235E0,7.684270477E0,1.240746601E1
1.543681875E0,3.974085846E0,-8.164471893E0,6.566844177E0,1.120604310E1
1.553699875E0,2.637515259E0,-8.202642517E0,7.074738007E0,1.114862094E1
1.563717875E0,1.137035522E0,-7.586523743E0,7.899223480E0,1.101117268E1
1.573735875E0,4.914280701E-1,-6.319558411E0,6.903494110E0,9.372115609E0
1.583753875E0,2.062710571E-1,-5.921236725E0,7.302863617E0,9.404010267E0
1.593771875E0,-2.734812927E-1,-5.925877075E0,7.607480164E0,9.646997749E0
1.603789875E0,-5.852828979E-1,-5.889353027E0,8.189769287E0,1.010442260E1
1.613807875E0,-7.782316589E-1,-5.594915314E0,8.239465942E0,9.989870915E0
1.623825875E0,-8.158035278E-1,-4.967569885E0,7.526199188E0,9.054609886E0
1.633843875E0,-6.987469482E-1,-4.192481689E0,6.365363159E0,7.653953107E0
1.643862875E0,-3.864962769E-1,-3.610192566E0,5.108576660E0,6.267409770E0
1.653880875E0,1.326242065E-1,-3.412004700E0,4.753215637E0,5.852557060E0
1.663898875E0,7.831713867E-1,-3.526366882E0,4.994962921E0,6.164274117E0
1.673916875E0,1.538949738E0,-3.873794403E0,5.279371490E0,6.726545377E0
1.683934875E0,2.310744781E0,-4.967420197E0,5.434149628E0,7.716526876E0
1.693952875E0,3.252586212E0,-6.775061188E0,5.428012390E0,9.270603523E0
1.703970875E0,4.449347534E0,-8.400231628E0,5.012027435E0,1.074620882E1
1.713988875E0,5.524561615E0,-9.518406372E0,4.327800293E0,1.182584865E1
1.724006875E0,6.731651459E0,-1.023077499E1,3.846101990E0,1.283652558E1
1.734024875E0,7.998467102E0,-9.567653961E0,3.753145294E0,1.302311706E1
1.744042875E0,8.890312500E0,-7.539371796E0,3.887416077E0,1.228787155E1
1.754060875E0,9.671837311E0,-4.733905792E0,5.109474792E0,1.191893593E1
1.764078875E0,1.032747391E1,-1.963466949E0,7.327262878E0,1.281408214E1
1.774096875E0,1.044497955E1,1.835483093E0,8.306975555E0,1.347117066E1
1.784114875E0,9.610764313E0,5.521867218E0,1.002659958E1,1.494625396E1
1.794132875E0,8.682095490E0,6.770570526E0,1.254915390E1,1.669433050E1
1.804151875E0,7.622299347E0,5.131628723E0,1.375759094E1,1.654401309E1
1.814169875E0,6.625372467E0,2.623594208E0,1.479059280E1,1.641768688E1
1.824187875E0,5.733377380E0,-2.862048340E-1,1.436457870E1,1.546915159E1
1.834205875E0,4.037553864E0,-2.681673431E0,1.410217438E1,1.491189243E1
1.844223875E0,2.471809845E0,-4.190535736E0,1.405142990E1,1.486987276E1
1.854241875E0,1.888772278E0,-4.966072998E0,1.328023361E1,1.430363403E1
1.864259875E0,1.514400787E0,-4.652624817E0,1.228689926E1,1.322528718E1
1.874277875E0,1.287622375E0,-2.861599274E0,1.127290787E1,1.170150305E1
1.884295875E0,1.362167358E0,-8.881031799E-1,1.099852844E1,1.111808684E1
1.894313875E0,1.443598022E0,4.013154602E-1,1.054751633E1,1.065340931E1
1.904331875E0,1.773661652E0,1.389261017E0,1.058927948E1,1.082629954E1
1.914349875E0,2.025587769E0,1.971849518E0,1.083192490E1,1.119472167E1
1.924367333E0,2.386187897E0,2.244432678E0,1.088970474E1,1.137176504E1
1.934385333E0,2.680625610E0,2.040406952E0,1.200847824E1,1.247207135E1
1.944403333E0,2.980751495E0,1.007854156E0,1.351734055E1,1.387872995E1
1.954421333E0,3.251837769E0,-3.538641357E-1,1.429946411E1,1.466882213E1
1.964440333E0,3.447929993E0,-1.432371368E0,1.472832230E1,1.519418924E1
1.974458333E0,3.598516846E0,-2.104623413E0,1.531315613E1,1.587046042E1
1.984476333E0,3.664529572E0,-2.208357697E0,1.547706528E1,1.605755804E1
1.994494333E0,3.618126068E0,-1.994452515E0,1.470332428E1,1.527273459E1
2.004512333E0,3.433859253E0,-1.388512573E0,1.371013962E1,1.420166486E1
2.014530333E0,3.012635193E0,-4.561015320E-1,1.249242188E1,1.285863926E1
2.024548333E0,2.734962616E0,3.207829285E-1,1.112741043E1,1.146307922E1
2.034566333E0,3.056943054E0,8.128097534E-2,1.036774017E1,1.080932670E1
2.044584333E0,3.635789337E0,-3.811074829E-1,1.006896149E1,1.071205827E1
2.054602333E0,4.290827179E0,-8.128097534E-1,1.037821838E1,1.125963030E1
2.064620333E0,4.793481903E0,-2.305505676E0,1.122650436E1,1.242285094E1
2.074638333E0,5.265450439E0,-4.010609894E0,1.265797760E1,1.428405954E1
2.084656333E0,5.471422119E0,-6.353837128E0,1.381222733E1,1.615813510E1
2.094674333E0,5.062771912E0,-7.987839203E0,1.369322479E1,1.664156362E1
2.104692333E0,4.231101379E0,-8.036787415E0,1.330523163E1,1.610966665E1
2.114710333E0,3.484903107E0,-7.777825928E0,1.213092361E1,1.482560061E1
2.124729333E0,3.002905426E0,-7.837102661E0,1.108774292E1,1.390595779E1
2.134747333E0,2.677182770E0,-7.479496307E0,9.814340973E0,1.262661718E1
2.144765333E0,2.065554657E0,-6.395450592E0,8.655600586E0,1.095845454E1
2.154783333E0,1.312770081E0,-5.060227203E0,8.127648468E0,9.663743284E0
2.164801333E0,7.795788574E-1,-3.841910706E0,8.165220337E0,9.057529697E0
2.174819333E0,6.005511475E-1,-2.786605225E0,8.530161438E0,8.993858155E0
2.184837333E0,9.529183960E-1,-1.979034576E0,8.589138794E0,8.865547730E0
2.194855333E0,1.957479401E0,-2.120490417E0,8.955576782E0,9.409068005E0
2.204873333E0,2.993325348E0,-3.365301819E0,1.006402176E1,1.102586899E1
2.214891333E0,3.511398010E0,-4.660558319E0,1.144085861E1,1.284305126E1
2.224909333E0,3.761527863E0,-4.597539368E0,1.221175552E1,1.357989076E1
2.234927333E0,3.167413330E0,-4.246219940E0,1.230246689E1,1.339453555E1
2.255741250E0,-4.271667023E0,1.161734161E0,7.902516632E0,9.057954214E0
2.265760250E0,-4.089196472E0,1.641187134E0,8.764424286E0,9.809697042E0
2.275778250E0,-4.015250244E0,2.327509918E0,9.870324554E0,1.090700893E1
2.285796250E0,-3.701502686E0,2.751877441E0,1.026086243E1,1.124985552E1
2.295814250E0,-3.579057312E0,3.760330353E0,9.933044128E0,1.120781429E1
2.305832250E0,-3.330873413E0,4.335284729E0,9.904603271E0,1.131329206E1
2.315850250E0,-3.292104034E0,4.500990143E0,9.731862488E0,1.121632777E1
2.325868250E0,-3.340752869E0,4.336931305E0,9.756261749E0,1.118723586E1
2.335886250E0,-3.327729950E0,3.868854675E0,9.566306763E0,1.084232670E1
2.345904250E0,-3.370690613E0,3.380270691E0,9.057664490E0,1.023860690E1
2.355922250E0,-3.312761078E0,3.067271576E0,8.767118683E0,9.861283430E0
2.365940250E0,-3.186573486E0,2.963986359E0,8.518934784E0,9.566175598E0
2.375958250E0,-3.007845154E0,3.008743286E0,8.243357849E0,9.276454994E0
2.385976250E0,-2.808609467E0,3.167862396E0,8.253836060E0,9.276284224E0
2.395994250E0,-2.667752380E0,3.262465668E0,8.336464233E0,9.341157365E0
2.406012250E0,-2.528541870E0,3.381767578E0,8.358318787E0,9.364366977E0
2.416030250E0,-2.341880035E0,3.545377350E0,8.364156647E0,9.381536072E0
2.426048250E0,-2.121238861E0,3.648961945E0,8.247698822E0,9.264940013E0
2.436067250E0,-2.035317535E0,3.849395142E0,8.076903992E0,9.175878079E0
2.446085250E0,-2.007625122E0,4.024980011E0,7.915689240E0,9.104348349E0
2.456103250E0,-1.800904999E0,4.044589233E0,7.710615692E0,8.891319094E0
2.466121250E0,-1.482068024E0,3.985312500E0,7.458988953E0,8.585788114E0
2.476139250E0,-1.361418915E0,4.078718262E0,7.221283264E0,8.404542587E0
2.486157250E0,-1.499132538E0,4.302802277E0,7.143445129E0,8.472916506E0
2.496175250E0,-1.573976898E0,4.521647186E0,7.267986145E0,8.703236131E0
2.506193250E0,-1.593137054E0,4.617597656E0,7.396868134E0,8.864194942E0
2.516211250E0,-1.690734100E0,4.688699799E0,7.538473663E0,9.037204920E0
2.526229250E0,-1.743125153E0,4.642296295E0,7.823930054E0,9.263006082E0
2.536247250E0,-1.701661377E0,4.552782440E0,8.346343689E0,9.658412518E0
2.546265250E0,-1.682501221E0,4.442761230E0,8.717721405E0,9.928121887E0
2.556283250E0,-1.629810791E0,4.169878693E0,8.930578766E0,9.989965396E0
2.566301250E0,-1.332379303E0,3.815415802E0,9.079519043E0,9.938324728E0
2.576319250E0,-9.859996033E-1,3.572021942E0,9.152716827E0,9.874399288E0
2.586337250E0,-8.270301819E-1,3.661685486E0,9.188941498E0,9.926155619E0
2.596355250E0,-7.310797119E-1,4.002975769E0,9.405990143E0,1.024846052E1
2.606374250E0,-6.936575317E-1,4.370760956E0,9.667646027E0,1.063240762E1
2.616392250E0,-5.454656982E-1,4.696034546E0,9.904603271E0,1.097503710E1
2.626410250E0,-3.501219177E-1,4.916675720E0,9.882149963E0,1.104324107E1
2.636428250E0,-2.661465454E-1,4.971761169E0,9.595046997E0,1.080991073E1
2.646446250E0,-3.296145630E-1,4.800517273E0,9.531279602E0,1.067702687E1
2.656464250E0,-2.865042114E-1,4.344565430E0,9.501491547E0,1.045158720E1
2.666482250E0,-2.754272461E-1,3.920048218E0,9.219627686E0,1.002218404E1
2.676500250E0,-5.282514954E-1,3.695515137E0,9.001082153E0,9.744504179E0
2.686518250E0,-8.872050476E-1,3.662433929E0,9.097032623E0,9.846652103E0
2.696536250E0,-9.431886292E-1,3.827989655E0,9.560917969E0,1.034186937E1
2.706554250E0,-6.686595154E-1,3.964206390E0,1.008318192E1,1.085507233E1
2.716572250E0,-2.240840149E-1,3.989503784E0,1.056038956E1,1.129106645E1
2.726590250E0,2.755769348E-1,3.912114716E0,1.074465637E1,1.143801664E1
2.736608250E0,7.985893250E-1,3.792363739E0,1.067385361E1,1.135565579E1
2.746626250E0,1.321601715E0,3.603456573E0,1.048374893E1,1.116425197E1
2.756644250E0,1.606309662E0,3.441493378E0,1.014320709E1,1.083091674E1
2.766662250E0,1.500180359E0,3.365750885E0,1.000743942E1,1.066431732E1
2.776681250E0,1.290017395E0,3.371289368E0,1.020368134E1,1.082334743E1
2.786699250E0,1.234183502E0,3.399730225E0,1.034004776E1,1.095435814E1
2.796717250E0,1.133592682E0,3.397035828E0,1.038405624E1,1.098423911E1
2.806735250E0,9.407936096E-1,3.327280884E0,1.030038025E1,1.086525306E1
2.816753250E0,8.223898315E-1,3.202141113E0,1.009620483E1,1.062371803E1
2.826771250E0,8.508306885E-1,3.033142548E0,9.415270844E0,9.928302555E0
2.836789250E0,6.248007202E-1,2.969524841E0,8.558901672E0,9.080927902E0
2.846807250E0,4.180805969E-1,3.122955780E0,8.022417297E0,8.618980420E0
2.856825250E0,4.249662781E-1,3.415297852E0,8.117769012E0,8.817200774E0
2.866843250E0,4.927752686E-1,3.718567200E0,8.697513428E0,9.471922155E0
2.876861250E0,5.911207581E-1,3.989803162E0,9.439221039E0,1.026483545E1
2.886879250E0,7.716453552E-1,3.954925690E0,9.467961273E0,1.028976017E1
2.896897250E0,8.514294434E-1,3.877686310E0,9.144483948E0,9.969100756E0
2.906915250E0,7.458988953E-1,3.751349030E0,9.259594574E0,1.001843682E1
2.916933250E0,6.719526672E-1,3.562890930E0,9.393715668E0,1.006914128E1
2.926951250E0,7.370672607E-1,3.397634583E0,9.364975433E0,9.989492168E0
2.936969250E0,7.837701416E-1,3.222199402E0,8.865015106E0,9.464954171E0
2.946988250E0,7.673043823E-1,3.106040955E0,8.183632050E0,8.786812844E0
2.957006250E0,7.330256653E-1,3.272345123E0,7.887847137E0,8.571096878E0
2.967024250E0,7.842192078E-1,3.415447540E0,7.852370911E0,8.598837746E0
2.977042250E0,8.455915833E-1,3.381318512E0,7.833659821E0,8.574063575E0
2.987060250E0,9.354048157E-1,3.413800964E0,7.887697449E0,8.645506939E0
2.997078250E0,1.095571747E0,3.443888397E0,7.948920135E0,8.731894185E0
3.007096250E0,1.321901093E0,3.415597229E0,8.142916718E0,8.928651611E0
3.017114250E0,1.730551300E0,3.258723450E0,8.313561859E0,9.095570192E0
3.027132250E0,2.063009949E0,2.776875458E0,8.078550568E0,8.788061597E0
3.037150250E0,1.886377258E0,2.424208832E0,7.813302155E0,8.395409351E0
3.047169125E0,1.781744843E0,2.140548706E0,7.359595642E0,7.868939666E0
3.057187125E0,1.817370758E0,2.144739990E0,6.862629089E0,7.416092240E0
3.067205125E0,1.712289276E0,2.517764282E0,6.560257874E0,7.232430775E0
3.077223125E0,1.763183441E0,2.916684723E0,6.567891998E0,7.399531804E0
3.087241125E0,1.864822083E0,3.125350800E0,6.834188232E0,7.742835903E0
3.097259125E0,1.912273407E0,3.175047455E0,6.860383759E0,7.797600992E0
3.107278125E0,1.983375549E0,3.316353607E0,6.779851227E0,7.803740288E0
3.117296125E0,2.101629639E0,3.516637115E0,6.949149170E0,8.066861715E0
3.127314125E0,2.276316376E0,3.499722290E0,6.972201233E0,8.126577532E0
3.137332125E0,2.429298248E0,3.294199677E0,6.816524963E0,7.950990760E0
3.147350125E0,2.313738556E0,2.971021729E0,6.950196991E0,7.904783010E0
3.157368125E0,2.052232361E0,2.714455261E0,7.067253571E0,7.843850971E0
3.167386125E0,1.952539673E0,2.617756348E0,7.321425018E0,8.016752695E0
3.177404125E0,1.676214294E0,2.753973083E0,7.676336975E0,8.325876018E0
3.187422125E0,1.313817902E0,2.936443634E0,8.024213562E0,8.645046095E0
3.197440125E0,1.172960815E0,3.387455750E0,8.122109985E0,8.878027041E0
3.207458125E0,1.443298645E0,4.104464722E0,8.237220612E0,9.315661277E0
3.217476125E0,1.821861420E0,4.662204895E0,8.347990265E0,9.733667088E0
3.227494125E0,2.218835907E0,4.740192719E0,8.550369415E0,1.002504249E1
3.237512125E0,2.487976227E0,4.322411499E0,8.620723114E0,9.959424375E0
3.247530125E0,2.773133240E0,3.542682953E0,8.575068054E0,9.683628587E0
3.257548125E0,3.129841461E0,2.620750122E0,8.351283417E0,9.295599684E0
3.267566125E0,3.195554810E0,2.031425629E0,8.225844269E0,9.055538336E0
3.277585125E0,3.003803558E0,2.058968353E0,8.178093567E0,8.952284674E0
3.287603125E0,2.883004761E0,2.295027466E0,7.876470795E0,8.695841518E0
3.297621125E0,3.088976440E0,2.133812714E0,6.713090057E0,7.691586980E0
3.307639125E0,3.015329590E0,3.074157257E0,7.569309540E0,8.708450051E0
3.317657125E0,2.220033417E0,4.349654846E0,8.553213501E0,9.849137366E0
3.327675125E0,1.707798615E0,5.101541290E0,9.183702393E0,1.064343409E1
3.337693125E0,1.354533234E0,5.319188690E0,9.499545593E0,1.097132148E1
3.347711125E0,1.462758179E0,5.144801331E0,9.540560303E0,1.093759266E1
3.358355125E0,2.077529755E0,4.255350952E0,8.780890045E0,9.976380686E0
3.368373125E0,2.637515259E0,3.389252014E0,8.649762726E0,9.657220675E0
3.378391125E0,2.533331909E0,3.290307770E0,9.277557220E0,1.016449525E1
3.388409125E0,2.146835632E0,3.850293274E0,9.668394470E0,1.062598293E1
3.398428125E0,1.936373291E0,4.375101929E0,9.929900665E0,1.102243102E1
3.408446125E0,2.029779053E0,4.688999176E0,1.076681030E1,1.191767261E1
3.418464125E0,2.330803070E0,4.496050415E0,1.205922272E1,1.307944819E1
3.428482125E0,2.239942017E0,2.695145416E0,1.277233978E1,1.324438797E1
3.438500125E0,2.047592010E0,1.976340179E0,1.169577850E1,1.203701742E1
3.448518125E0,2.338586884E0,2.650987244E0,1.179711777E1,1.231538508E1
3.458536125E0,2.383044434E0,2.122586060E0,1.158964920E1,1.202099168E1
3.468554125E0,2.587519226E0,2.073188782E0,1.163545395E1,1.209864274E1
3.478572125E0,2.772384796E0,2.542612610E0,1.188363785E1,1.246482430E1
3.488590125E0,2.717898102E0,2.800675964E0,1.133442993E1,1.198749589E1
3.498608125E0,2.712958374E0,2.940036163E0,1.111154343E1,1.180975669E1
3.508626125E0,2.691103821E0,2.963387604E0,1.084958817E1,1.156448309E1
3.518644125E0,2.548450470E0,3.015479279E0,1.001642075E1,1.076644787E1
3.528662125E0,2.471211090E0,3.371888123E0,9.344917145E0,1.023738200E1
3.538680125E0,2.347867584E0,4.151616669E0,9.326954498E0,1.047570921E1
3.548698125E0,1.752854919E0,5.357958069E0,9.801617432E0,1.130716230E1
3.558716125E0,1.039438477E0,6.222709808E0,1.057940002E1,1.231772116E1
3.568735125E0,6.207591248E-1,6.623426514E0,1.137409744E1,1.317669205E1
3.578753125E0,3.465293884E-1,5.870342560E0,1.162273041E1,1.302570023E1
3.588771125E0,9.828561401E-1,3.064427490E0,1.079375427E1,1.126329673E1
3.598789125E0,2.230212250E0,1.268761597E0,1.040276733E1,1.071453083E1
3.608807125E0,2.195933533E0,6.123765564E-1,1.002121078E1,1.027724646E1
3.618825125E0,1.397194519E0,8.714877319E-1,9.813293152E0,9.950495760E0
3.628843125E0,1.070873108E0,1.654060364E0,1.006536896E1,1.025642906E1
3.638861125E0,1.095871124E0,2.120490417E0,1.015548157E1,1.043222023E1
3.648879125E0,1.237177277E0,1.874402161E0,9.927655334E0,1.017852305E1
3.658897125E0,1.145717468E0,1.622026978E0,9.661359100E0,9.863341204E0
3.668915125E0,1.044976959E0,1.490450592E0,9.387279053E0,9.562135108E0
3.678933125E0,1.179846497E0,1.244212646E0,9.337881775E0,9.494005420E0
3.688951125E0,1.210682373E0,1.354832611E0,9.410031738E0,9.583841637E0
3.698969125E0,1.190175018E0,1.734892273E0,9.317524109E0,9.552100465E0
3.708987125E0,9.377998352E-1,1.921105042E0,9.194180603E0,9.439442254E0
3.719005125E0,7.057823181E-1,1.948498077E0,9.025930481E0,9.260788006E0
3.729024125E0,7.232958984E-1,1.511257324E0,8.828491058E0,8.986061986E0
3.739042125E0,6.182144165E-1,1.025966492E0,8.590036926E0,8.673149987E0
3.749060125E0,4.474195862E-1,1.102158051E0,8.539142761E0,8.621594734E0
3.759078125E0,4.571493530E-1,9.342073059E-1,8.513096924E0,8.576394817E0
3.769096125E0,3.740721130E-1,1.147813110E0,8.687633972E0,8.771111042E0
3.779114125E0,4.349954224E-1,1.145268402E0,8.731193390E0,8.816722676E0
3.789132125E0,5.357359314E-1,1.596280518E0,8.897647247E0,9.055564644E0
3.799150125E0,6.051914978E-1,1.783690796E0,9.281149750E0,9.470351117E0
3.809168125E0,8.665480042E-1,1.524280243E0,9.490713959E0,9.651320487E0
3.819186125E0,1.246308289E0,1.354084167E0,9.589807892E0,9.764796142E0
3.829204125E0,1.328188019E0,1.313368835E0,9.706714783E0,9.884803133E0
3.839222125E0,1.316362610E0,1.307081909E0,9.731712799E0,9.906942396E0
3.849240125E0,1.401984558E0,1.344504089E0,9.863588562E0,1.005304090E1
3.859258125E0,1.609303436E0,1.260379028E0,9.794881439E0,1.000590402E1
3.869276125E0,1.811233521E0,1.024170227E0,9.356443176E0,9.585015411E0
3.879294125E0,1.788480835E0,1.162332916E0,8.885971527E0,9.138389983E0
3.889312125E0,1.950893097E0,1.128203888E0,8.453820190E0,8.749051589E0
3.899331125E0,2.272873535E0,1.057401123E0,8.008645935E0,8.391809159E0
3.909349125E0,2.596650238E0,1.349294128E0,7.593708801E0,8.138034189E0
3.919367125E0,2.728675690E0,1.989961853E0,7.436535645E0,8.167477064E0
3.929385125E0,2.814297638E0,2.438429260E0,7.477999420E0,8.353842456E0
3.939403125E0,2.841990051E0,2.317929840E0,7.367229767E0,8.229567463E0
3.949421125E0,2.909799042E0,1.431173859E0,6.967860260E0,7.685458066E0
3.959439125E0,3.095862122E0,3.842509460E-1,6.384523315E0,7.105923517E0
3.969457125E0,3.167263641E0,-3.824546814E-1,5.733527069E0,6.561338523E0
3.979475125E0,3.113226013E0,-9.394464111E-1,4.978347473E0,5.946316451E0
3.989493125E0,2.916385345E0,-1.407523041E0,4.284240875E0,5.370395188E0
3.999511125E0,2.816992035E0,-1.539249115E0,3.673211517E0,4.878238905E0
4.009529125E0,3.029699707E0,-1.251098328E0,2.604733429E0,4.186760511E0
4.019547125E0,3.116369476E0,-1.033899994E0,1.844763794E0,3.766146753E0
4.029565125E0,3.081042938E0,-1.213526459E0,1.231189728E0,3.532888365E0
4.039583125E0,3.373834076E0,-1.742526398E0,7.297325134E-1,3.866738181E0
4.049601125E0,3.874842224E0,-2.392474823E0,5.104385376E-1,4.582454096E0
4.059620125E0,4.419409790E0,-2.958747253E0,1.264869690E0,5.466741583E0
4.069638125E0,5.056335297E0,-3.404520264E0,2.795586548E0,6.706160526E0
4.079656125E0,5.589376831E0,-3.973487091E0,4.040098572E0,7.959405097E0
4.089674125E0,6.010301514E0,-4.796325989E0,4.746180267E0,9.036298712E0
4.099692125E0,6.201004944E0,-5.730533295E0,4.948110352E0,9.786484057E0
4.109710125E0,6.278843079E0,-6.432124329E0,4.692292328E0,1.013970912E1
4.119728125E0,6.407575378E0,-7.128176880E0,4.229155426E0,1.047633922E1
4.129746125E0,6.496191101E0,-7.995024261E0,4.029470673E0,1.106153451E1
4.139764125E0,6.788383484E0,-8.882079620E0,3.849694519E0,1.182343590E1
4.149782125E0,7.442972260E0,-9.136700134E0,3.785777435E0,1.237777186E1
4.159800125E0,8.112230530E0,-8.623716888E0,3.837420044E0,1.244598609E1
4.169818125E0,8.859326935E0,-8.035889282E0,4.052822113E0,1.262887791E1
4.179836125E0,9.655072174E0,-8.042176208E0,4.156706085E0,1.323537768E1
4.189854125E0,1.060394897E1,-8.388256531E0,4.541855164E0,1.426306523E1
4.199872125E0,1.146974854E1,-8.658893738E0,5.239703979E0,1.529660322E1
4.209890125E0,1.215277817E1,-9.041348419E0,5.920937347E0,1.626325605E1
4.219909125E0,1.322694443E1,-9.708810425E0,6.931635590E0,1.781181155E1
4.229927125E0,1.437206314E1,-1.058733353E1,8.787626038E0,1.989648716E1
4.239945125E0,1.541838730E1,-1.125494522E1,1.050814819E1,2.179040241E1
4.249963125E0,1.628209122E1,-1.095392120E1,1.157752441E1,2.278451131E1
4.259981125E0,1.632205811E1,-9.505084076E0,1.241907440E1,2.260507936E1
4.269999125E0,1.559741501E1,-7.806566162E0,1.296034882E1,2.172999014E1
4.280017125E0,1.504656052E1,-6.676715698E0,1.279254776E1,2.084770477E1
4.290035125E0,1.458686646E1,-5.984255676E0,1.225830872E1,1.997133249E1
4.300053125E0,1.423599609E1,-5.862558746E0,1.210966782E1,1.958768068E1
4.310071125E0,1.401101395E1,-6.538403320E0,1.244706619E1,1.984914826E1
4.320089125E0,1.379740814E1,-7.387288055E0,1.312365921E1,2.042476260E1
4.330107125E0,1.361778168E1,-7.925119629E0,1.413166306E1,2.116495688E1
4.340125125E0,1.343246704E1,-8.052953796E0,1.480660950E1,2.155265460E1
4.350143125E0,1.301079391E1,-7.525151367E0,1.479912506E1,2.109319236E1
4.360161125E0,1.242536133E1,-6.320606232E0,1.439376801E1,2.003796957E1
4.370179125E0,1.180789536E1,-4.592449951E0,1.399215317E1,1.887584010E1
4.380198125E0,1.097517700E1,-2.972668304E0,1.346090790E1,1.762065006E1
4.390216125E0,1.029663803E1,-2.015109558E0,1.284404068E1,1.658465563E1
4.400234125E0,1.004680756E1,-1.926942902E0,1.238135284E1,1.606080164E1
4.410252125E0,1.001926483E1,-2.235601044E0,1.207434128E1,1.584844778E1
4.420270125E0,9.901759186E0,-2.362986145E0,1.122515717E1,1.515363626E1
4.430288125E0,9.571246490E0,-2.336341553E0,9.765991516E0,1.387234088E1
4.440306125E0,9.242380371E0,-2.452050934E0,8.235723724E0,1.261987694E1
4.450324125E0,8.652307434E0,-2.692301331E0,7.028484192E0,1.146780277E1
4.460342125E0,7.898325348E0,-2.953807526E0,6.298601990E0,1.052525103E1
4.470360125E0,7.241341553E0,-3.224744110E0,6.210734711E0,1.007021488E1
4.480378125E0,6.675368500E0,-3.095413055E0,6.034251709E0,9.516003377E0
4.490396125E0,6.211183777E0,-3.060086517E0,6.011349335E0,9.169474043E0
4.500414125E0,6.139782257E0,-2.853815460E0,5.337899780E0,8.621737813E0
4.510432125E0,6.228996735E0,-1.670825500E0,4.303850098E0,7.753398212E0
4.520450125E0,6.147117004E0,-1.144969025E0,3.545077972E0,7.187877250E0
4.530468125E0,6.916067963E0,-1.068328400E0,2.293979645E0,7.364486693E0
4.540487125E0,7.462132416E0,-7.240443420E-1,-1.261875916E-1,7.498238707E0
4.550505125E0,7.634274445E0,-2.002086639E0,-1.205443268E0,7.983958334E0
4.560523125E0,7.209757233E0,-1.446292419E0,-9.952803040E-1,7.420440957E0
4.570541125E0,7.519463196E0,5.539979553E-1,-1.216819611E0,7.637400765E0
4.580559125E0,7.283853149E0,-1.449884949E0,-1.315763855E-1,7.427919992E0
4.590577125E0,8.615633698E0,-4.973856812E0,9.616003418E-1,9.994652110E0
4.600595125E0,5.333259430E0,-8.075706482E0,1.930685120E0,9.868547834E0
4.610613125E0,2.082319794E0,-8.288114777E0,2.169588318E0,8.816803034E0
4.620631125E0,5.852828979E-1,-7.566016388E0,2.710862732E0,8.058283738E0
4.630649125E0,5.236111450E-1,-7.619006195E0,3.936963043E0,8.592037130E0
4.640667125E0,1.159339142E0,-6.955436096E0,5.219196625E0,8.772808669E0
4.650685125E0,1.812880096E0,-6.685397644E0,6.499783630E0,9.498855886E0
4.660703125E0,2.112257538E0,-6.830745392E0,6.938970337E0,9.963434340E0
4.670721125E0,1.905986481E0,-6.608757019E0,6.821614380E0,9.687253303E0
4.680739125E0,1.674268341E0,-6.261479187E0,6.639443207E0,9.278550651E0
4.690757125E0,1.793869629E0,-6.873706055E0,6.823111267E0,9.849906118E0
4.700776125E0,2.081721039E0,-8.449329529E0,7.769593048E0,1.166581794E1
4.710794125E0,2.547103271E0,-1.008887009E1,8.075556793E0,1.317147115E1
4.720812125E0,3.501219177E0,-1.141900406E1,6.912475433E0,1.379980094E1
4.730830125E0,4.529431000E0,-1.218585938E1,5.907764740E0,1.427979685E1
4.740848125E0,5.228776703E0,-1.143232635E1,5.082830200E0,1.355999095E1
4.750866125E0,5.878276062E0,-1.055380325E1,5.042114868E0,1.309044747E1
4.760884125E0,6.310726776E0,-8.163723450E0,4.804109802E0,1.138205271E1
4.770902125E0,4.425247650E0,-5.356012115E0,3.721261597E0,7.881463723E0
4.780920125E0,2.543959808E0,-3.332819366E0,2.257904663E0,4.762095117E0
4.790938125E0,1.323248291E0,-3.090772705E0,1.970202942E0,3.896865611E0
4.800956125E0,4.912783813E-1,-2.182162170E0,1.901046753E0,2.935500799E0
4.810974125E0,3.793112183E-1,-2.021246796E0,2.269730072E0,3.062840219E0
4.820992125E0,1.279988251E0,-2.518812103E0,3.476370850E0,4.479725284E0
4.831010125E0,1.640139313E0,-2.949316864E0,4.165388031E0,5.360875337E0
4.841028125E0,1.880389709E0,-2.955304413E0,5.483995972E0,6.507219179E0
4.851046125E0,2.202669525E0,-3.910917206E0,6.325695648E0,7.756381364E0
4.861065125E0,2.347867584E0,-4.367018738E0,6.030210114E0,7.806841158E0
4.871083125E0,2.261946259E0,-4.776118011E0,4.882397003E0,7.194824851E0
4.881101125E0,2.124831390E0,-5.836662598E0,3.744163971E0,7.252606604E0
4.891119125E0,1.494043121E0,-7.596702576E0,3.473826141E0,8.485842500E0
4.901137125E0,1.975891113E0,-7.851173401E0,3.294648743E0,8.740696757E0
4.911155125E0,2.921175385E0,-8.104297028E0,2.946622467E0,9.104695486E0
4.921173125E0,5.118306427E0,-7.744145966E0,4.428540802E0,1.028498085E1
4.931191125E0,5.954467621E0,-8.944649506E0,5.348228302E0,1.200274908E1
4.941209125E0,6.842870178E0,-1.075872711E1,7.610623627E0,1.484913039E1
4.951227125E0,5.370681610E0,-8.205785980E0,8.978778534E0,1.329652618E1
4.961245125E0,4.006867676E0,-1.202569244E1,7.571554871E0,1.476484712E1
4.971263125E0,5.465733948E0,-1.333951035E1,1.012060410E1,1.761372792E1
4.981281125E0,6.465953979E0,-3.845503235E0,1.126632156E1,1.354719372E1
4.991299125E0,1.953138428E0,-7.076534271E0,8.966354370E0,1.158825257E1
5.001317125E0,2.203567657E0,-1.117935242E1,8.126900024E0,1.399571845E1
5.011335125E0,3.662433929E0,-1.537437881E1,7.537725220E0,1.751006133E1
5.021354125E0,3.642225952E0,-1.386536682E1,7.137906647E0,1.601449088E1
5.031372125E0,4.719236298E0,-1.528995438E1,8.403824158E0,1.807424014E1
5.041390125E0,5.526956635E0,-1.546434174E1,7.927364960E0,1.823557595E1
5.051407750E0,4.121828613E0,-1.241383530E1,5.646408234E0,1.424691910E1
5.061425750E0,2.683469696E0,-9.696685638E0,3.460952911E0,1.063977993E1
5.071443750E0,2.103874969E0,-8.319100342E0,1.165476379E0,8.659795354E0
5.081461750E0,1.333427124E0,-7.446714478E0,-3.829037476E-1,7.574839912E0
5.091479750E0,2.844085693E-1,-7.567962341E0,-3.426374817E-1,7.581051555E0
5.101497750E0,-7.634124756E-2,-7.588769073E0,-3.192860413E-1,7.595866482E0
5.111515750E0,-8.681945801E-2,-8.190667419E0,4.138893127E-1,8.201577577E0
5.121533750E0,5.837860107E-2,-8.426427155E0,1.488953705E0,8.557164588E0
5.131551750E0,3.427871704E-1,-9.089099121E0,2.318678284E0,9.386452730E0
5.141569750E0,4.559518433E-1,-1.021086639E1,2.583777008E0,1.054256080E1
5.151587750E0,1.074315948E0,-1.071890991E1,2.593506775E0,1.108040892E1
5.161605750E0,9.184899902E-1,-1.058239380E1,2.636317749E0,1.094444396E1
5.171624750E0,6.480024719E-1,-1.015997223E1,2.640958099E0,1.051758540E1
5.181642750E0,1.026415558E0,-9.474547577E0,2.471809845E0,9.845325012E0
5.191660750E0,1.569336548E0,-1.036759048E1,2.378553772E0,1.075208202E1
5.201678750E0,2.825374603E0,-1.188064407E1,2.835254059E0,1.253679029E1
5.211696750E0,3.790268097E0,-1.077878540E1,3.614683228E0,1.198391763E1
5.221714750E0,4.791685638E0,-8.036937103E0,4.470303955E0,1.036996754E1
5.231732750E0,6.479276276E0,-5.156327362E0,4.773573303E0,9.558019408E0
5.241750750E0,4.799469452E0,-6.514752502E0,2.893482971E0,8.593552868E0
5.251768750E0,2.519410858E0,-8.715476074E0,1.656455383E0,9.222298993E0
5.261786750E0,5.010081482E-1,-1.000309845E1,6.689588928E-1,1.003795267E1
5.271804750E0,-2.078128510E0,-1.117336487E1,-5.086422729E-1,1.137635344E1
5.281822750E0,-4.242627411E0,-1.105256607E1,-1.620530090E0,1.194927704E1
5.291840750E0,-5.295986938E0,-9.585616608E0,-1.747017059E0,1.108979675E1
5.301858750E0,-5.690566406E0,-8.206384735E0,-1.498384094E0,1.009814098E1
5.311876750E0,-4.169579315E0,-6.220913544E0,-1.192420349E0,7.583338531E0
5.321895750E0,-1.953437805E0,-5.392685852E0,-2.206411743E-1,5.739831224E0
5.331913750E0,-1.088087311E0,-5.529201965E0,7.140151978E-2,5.635699295E0
5.341931750E0,-9.367520142E-1,-6.535858612E0,-7.204518127E-1,6.641837317E0
5.351949750E0,-4.954696655E-1,-5.750890961E0,-1.092877350E0,5.874744074E0
5.361967750E0,1.356179810E-1,-6.218219147E0,-8.589138794E-1,6.278723966E0
5.371985750E0,8.101153564E-1,-7.607031097E0,5.629792786E-1,7.670733647E0
5.382003750E0,2.769989777E0,-7.680677948E0,3.297343140E0,8.805573740E0
5.392021750E0,3.505709839E0,-9.516011353E0,5.323679352E0,1.145364725E1
5.402039750E0,2.969524841E0,-1.081486038E1,6.129304047E0,1.278075315E1
5.412057750E0,4.793930969E0,-1.114073273E1,7.304360504E0,1.415808540E1
5.422075750E0,9.499395905E0,-9.336983643E0,3.903881836E0,1.388013255E1
5.432093750E0,8.679251404E0,-8.917406158E0,3.872746582E0,1.303256320E1
5.442111750E0,7.471113739E0,-9.198072510E0,4.053570557E0,1.252411724E1
5.452129750E0,8.002059631E0,-8.862769775E0,2.735860748E0,1.225016655E1
5.462147750E0,7.631280670E0,-8.598120117E0,1.663490753E0,1.161599396E1
5.472165750E0,7.071744232E0,-8.411458282E0,6.487509155E-1,1.100831843E1
5.482184750E0,6.406078491E0,-8.339607697E0,-4.490661621E-1,1.052561440E1
5.492202750E0,5.814059601E0,-8.198301544E0,-7.924520874E-1,1.008183602E1
5.502220750E0,5.226082306E0,-8.678053894E0,-1.363364868E0,1.022151258E1
5.512238750E0,3.992946625E0,-8.449928284E0,-7.062313843E-1,9.372495586E0
5.522256750E0,3.166365509E0,-8.591533813E0,-4.575984192E-1,9.167863443E0
5.532274750E0,2.142195282E0,-8.665779419E0,-1.127754822E0,8.997586593E0
5.542292750E0,1.312321014E0,-8.916358337E0,-1.344653778E0,9.112174616E0
5.552310750E0,8.497828674E-1,-8.815019073E0,-1.167422333E0,8.932500607E0
5.562328750E0,1.043031006E0,-9.278006287E0,-5.263055420E-1,9.351273275E0
5.572346750E0,9.692344666E-1,-1.024140289E1,-6.668632507E-1,1.030875624E1
5.582364750E0,8.279283142E-1,-1.043929138E1,-4.495152283E-1,1.048171426E1
5.592382750E0,8.541238403E-1,-1.061801971E1,3.727249146E-2,1.065238281E1
5.602400750E0,1.003812561E0,-1.073582474E1,3.315605164E-1,1.078774790E1
5.612418750E0,1.338815918E0,-1.078552139E1,7.243437195E-1,1.089240899E1
5.622436750E0,1.526525574E0,-1.106274490E1,1.225950623E0,1.123465888E1
5.632454750E0,1.947150879E0,-1.128832581E1,1.524878998E0,1.155607857E1
5.642473750E0,2.327360229E0,-1.161419815E1,1.737736359E0,1.197188089E1
5.652491750E0,2.332000580E0,-1.144460083E1,1.632056122E0,1.179324900E1
5.662509750E0,2.659818878E0,-1.157153687E1,1.359772339E0,1.195090301E1
5.672527750E0,3.321293335E0,-1.203018311E1,1.618733826E0,1.258477629E1
5.682545750E0,3.813170471E0,-1.174637329E1,1.957928467E-1,1.235135172E1
5.692563750E0,3.914509735E0,-1.153710846E1,-5.849835205E-1,1.219714982E1
5.702581750E0,3.509002991E0,-1.123922791E1,-5.418731689E-2,1.177439095E1
5.712599750E0,2.818189545E0,-1.026490402E1,-1.345402222E0,1.072942468E1
5.722617750E0,2.301613770E0,-9.289532318E0,-2.403551788E0,9.867618651E0
5.732635750E0,1.346000977E0,-8.396339722E0,-2.803819427E0,8.953861889E0
5.742653750E0,5.246589661E-1,-6.997348938E0,-2.674787750E0,7.509503892E0
5.752671750E0,2.109114075E-1,-6.216572571E0,-2.178270264E0,6.590532565E0
5.762689750E0,-1.145717468E0,-5.893095245E0,-2.105072479E0,6.361805579E0
5.772707750E0,-2.808908844E0,-6.479575653E0,-3.533851318E0,7.897023153E0
5.782725750E0,-3.198997650E0,-6.371051331E0,-3.635489960E0,8.002541363E0
5.792744750E0,-3.143163757E0,-5.230423279E0,-2.558180237E0,6.616728210E0
5.802762750E0,-1.970801697E0,-3.852388916E0,-2.856509857E0,5.185036958E0
5.812780750E0,5.179229736E-2,-2.505040741E0,-1.657503204E0,3.004201796E0
5.822798750E0,-1.558259583E-1,-2.640958099E0,4.918771362E-1,2.690889171E0
5.832816750E0,-4.712200928E-1,-2.581082611E0,8.888516235E-1,2.770215340E0
5.842834750E0,-5.457650757E-1,-2.179916840E0,8.530760193E-1,2.403671284E0
5.852852750E0,-1.058598633E0,-2.617007904E0,8.732839966E-1,2.954993464E0
5.862870750E0,-1.740879822E0,-3.457360382E0,7.252418518E-1,3.938271081E0
5.872888750E0,-2.479893036E0,-4.881049805E0,1.451980591E-2,5.474918035E0
5.882906750E0,-2.221530304E0,-5.347928925E0,4.808001709E-1,5.810912964E0
5.892924750E0,-1.335822144E0,-6.118825836E0,3.570375366E0,7.209162966E0
5.902942750E0,1.608255615E0,-8.356223145E0,6.958579559E0,1.099248747E1
5.912960750E0,4.103267212E0,-9.399852905E0,1.109747269E1,1.511118581E1
5.922978750E0,6.239025879E0,-1.005698639E1,1.164308807E1,1.660210586E1
5.932996750E0,6.287225647E0,-4.073823441E1,-4.186943207E0,4.143263740E1
5.943015750E0,8.511600037E0,-6.327357193E1,-1.678175217E1,6.601226739E1
5.953033750E0,7.677684174E0,-2.409120209E1,1.765428772E0,2.534658934E1
5.963051750E0,2.310445404E0,-6.397097168E0,1.789977722E0,7.033138019E0
5.973069750E0,-5.294490051E-1,-3.365152130E0,2.094893646E0,3.999142970E0
5.983087750E0,-1.002764740E0,-5.511389008E0,5.637277222E0,7.947316553E0
5.993105750E0,-1.185983734E0,-8.956624603E0,4.540807343E0,1.011170673E1
6.003123750E0,-1.561552734E0,-1.043420197E1,2.527194672E0,1.084885849E1
6.013141750E0,-1.765279083E0,-1.004546036E1,1.779798889E0,1.035350994E1
6.023159750E0,-1.614542542E0,-9.501192169E0,2.083217926E0,9.859979573E0
6.033177750E0,-1.441951447E0,-9.217382355E0,2.461930389E0,9.648858103E0
6.043195750E0,-1.223106537E0,-9.194779358E0,2.011367340E0,9.491341086E0
6.053213500E0,-8.342152405E-1,-9.169481964E0,1.372795258E0,9.309128927E0
6.063231500E0,-3.281176758E-1,-9.240584106E0,8.162525940E-1,9.282366300E0
6.073249500E0,-7.229965210E-2,-9.147028656E0,4.311035156E-1,9.157467484E0
6.083267500E0,-2.433938599E-1,-9.072932739E0,3.553610229E-1,9.083150914E0
6.093286500E0,-5.882766724E-1,-9.109007721E0,5.875282288E-1,9.146872718E0
6.103304500E0,-8.301736450E-1,-8.971743164E0,1.090781708E0,9.075856346E0
6.113322500E0,-7.755372620E-1,-8.841513977E0,1.648521881E0,9.027261592E0
6.123340500E0,-3.640429688E-1,-8.686586151E0,2.121238861E0,8.949243574E0
6.133358500E0,2.362088013E-1,-8.317304077E0,2.407443695E0,8.661935514E0
6.143376500E0,6.831793213E-1,-8.443641357E0,2.391277313E0,8.802273601E0
6.153394500E0,1.045426025E0,-8.511150970E0,2.170486450E0,8.845542259E0
6.163412500E0,1.459015961E0,-8.459807739E0,2.059866486E0,8.828370433E0
6.173430500E0,2.001936951E0,-8.592282257E0,2.155667267E0,9.081958341E0
6.183448500E0,2.499801636E0,-8.965456238E0,2.100432129E0,9.541500348E0
6.193466500E0,2.986439667E0,-9.151968384E0,2.029928741E0,9.838595320E0
6.203484500E0,3.360362091E0,-8.981772308E0,2.073039093E0,9.811307673E0
6.213502500E0,4.145629120E0,-9.166937256E0,2.393522644E0,1.034156323E1
6.223520500E0,5.152884521E0,-9.286688232E0,2.576292572E0,1.092849855E1
6.233538500E0,5.364095306E0,-9.095236359E0,2.100132751E0,1.076602993E1
6.243556500E0,4.909790039E0,-9.527387695E0,1.578617249E0,1.083370606E1
6.253575500E0,4.513414307E0,-9.805060272E0,1.642085266E0,1.091817566E1
6.263593500E0,3.893104248E0,-1.019499939E1,1.204096069E0,1.097925865E1
6.273611500E0,3.469185791E0,-1.080842377E1,1.242715759E0,1.141935273E1
6.283629500E0,3.514990540E0,-1.097847015E1,1.939367065E0,1.168944438E1
6.293647500E0,3.494183807E0,-1.084764221E1,2.631677399E0,1.169642629E1
6.303665500E0,3.776796112E0,-1.047731232E1,2.895578613E0,1.150750354E1
6.313683500E0,3.977977753E0,-9.443412323E0,2.469714203E0,1.054048536E1
6.323701500E0,4.087998962E0,-8.689579926E0,1.599573669E0,9.735459451E0
6.333719500E0,3.662583618E0,-1.148875900E1,5.064568176E0,1.307883607E1
6.343737500E0,2.759361877E0,-1.398766251E1,3.607797546E0,1.470663060E1
6.353755500E0,1.578766937E0,-1.275602371E1,2.206411743E-1,1.285524518E1
6.363773500E0,1.172062683E-1,-1.289328827E1,-1.775308228E-1,1.289504311E1
6.373791500E0,-9.186396790E-1,-1.247565674E1,-5.842350769E-1,1.252306834E1
6.383809500E0,-1.219963074E0,-1.152019363E1,-5.882766724E-2,1.158475861E1
6.393827500E0,-8.128097534E-1,-1.074809921E1,1.197659454E0,1.084512262E1
6.403846500E0,-6.021977234E-1,-1.052985306E1,1.929637299E0,1.072212421E1
6.413864500E0,-7.837701416E-1,-9.549990692E0,9.901908875E-1,9.633124926E0
6.423882500E0,-6.382727051E-1,-9.741592255E0,1.176253967E0,9.833086245E0
6.433900500E0,-8.446934509E-1,-9.427395630E0,-6.801855469E-1,9.489570473E0
6.443918500E0,-1.085841980E0,-9.256151733E0,-1.084794159E0,9.382546354E0
6.453936500E0,-6.930587769E-1,-9.878856812E0,-5.101391602E-1,9.916268670E0
6.463954500E0,-1.115929413E0,-9.773775330E0,-2.473306732E0,1.014343279E1
6.473972500E0,-1.298100586E0,-9.859696655E0,-2.032772827E0,1.015041125E1
6.483990500E0,-1.391206970E0,-9.849817200E0,-1.539099426E0,1.006594172E1
6.494008500E0,-1.629960480E0,-9.921817474E0,-1.260379028E0,1.013349833E1
6.504026500E0,-1.687890015E0,-1.066472260E1,-1.194815369E0,1.086337261E1
6.514044500E0,-1.525328064E0,-1.132859207E1,-1.930984497E-2,1.143083535E1
6.524062500E0,-1.509910126E0,-1.152782776E1,1.024918671E0,1.167137951E1
6.534080500E0,-2.325264587E0,-1.077624069E1,1.227896576E0,1.109242755E1
6.544098500E0,-3.300785980E0,-1.010144394E1,1.567989349E0,1.074211098E1
6.554116500E0,-3.920197906E0,-9.689949646E0,1.631457367E0,1.057944842E1
6.564135500E0,-4.056564331E0,-9.399703217E0,2.229763184E0,1.047768956E1
6.574153500E0,-4.057312775E0,-9.334139557E0,2.565215607E0,1.049610782E1
6.584171500E0,-3.804638214E0,-9.213490448E0,2.321672058E0,1.023493231E1
6.594189500E0,-3.320544891E0,-9.015901337E0,2.514770508E0,9.931594333E0
6.604207500E0,-2.634970551E0,-8.894204407E0,2.128723297E0,9.517426370E0
6.614225500E0,-1.728605347E0,-8.591384125E0,1.907633057E0,8.968780380E0
6.624243500E0,-8.753796387E-1,-8.370293884E0,1.651066589E0,8.576370450E0
6.634261500E0,-6.741979980E-1,-7.742649078E0,1.528321838E0,7.920790701E0
6.644279500E0,-9.117539978E-1,-7.207212524E0,1.555565186E0,7.429333131E0
6.654297500E0,-1.153052216E0,-7.120842133E0,1.088237000E0,7.295216368E0
6.664315500E0,-1.314865723E0,-7.170688477E0,8.050259399E-1,7.334556010E0
6.674333500E0,-1.037193146E0,-7.787406006E0,7.068301392E-1,7.887906615E0
6.684351500E0,-4.339476013E-1,-8.985813904E0,2.163002014E-1,8.998885921E0
6.694369500E0,-6.391708374E-2,-9.824669495E0,3.023712158E-2,9.824923936E0
6.704387500E0,1.669029236E-1,-1.046818130E1,-2.237846375E-1,1.047190317E1
6.714406500E0,2.254312134E-1,-1.091021210E1,-5.777984619E-1,1.092782679E1
6.724424500E0,2.983296204E-1,-1.123473724E1,-9.403445435E-1,1.127796832E1
6.734442500E0,6.991960144E-1,-1.151884644E1,-8.390052795E-1,1.157050682E1
6.744460500E0,1.141526184E0,-1.158979889E1,-5.722599792E-1,1.165993147E1
6.754478500E0,1.215771790E0,-1.104657852E1,-2.680924988E-1,1.111651347E1
6.764496500E0,1.033450928E0,-1.035411850E1,-8.637039185E-2,1.040592382E1
6.774514500E0,8.644523621E-1,-9.899663544E0,5.972579956E-2,9.937513941E0
6.784532500E0,7.026388550E-1,-9.518256683E0,1.836680603E-1,9.545922984E0
6.794550500E0,4.908293152E-1,-9.253906403E0,2.041754150E-1,9.269163108E0
6.804568500E0,2.770738220E-1,-9.058263245E0,2.384541321E-1,9.065636397E0
6.814586500E0,9.879455566E-2,-8.967701569E0,2.550695801E-1,8.971872284E0
6.824604500E0,-2.067201233E-1,-8.946745148E0,2.685415649E-1,8.953161258E0
6.834622500E0,-5.132826233E-1,-8.829389191E0,5.050497437E-1,8.858704633E0
6.844640500E0,-7.003935242E-1,-8.777746582E0,6.360273743E-1,8.828585219E0
6.854658500E0,-8.177494812E-1,-8.662486267E0,7.759863281E-1,8.735533030E0
6.864677500E0,-9.427395630E-1,-8.489895172E0,1.209933929E0,8.627341307E0
6.874695500E0,-1.129700775E0,-8.389454041E0,1.464404755E0,8.590904738E0
6.884713500E0,-1.160087585E0,-8.426427155E0,1.537003784E0,8.643660014E0
6.894731500E0,-1.194815369E0,-8.591982880E0,1.521735535E0,8.807123969E0
6.904749500E0,-1.424886932E0,-8.736432495E0,1.481768646E0,8.975031690E0
6.914767500E0,-1.669777679E0,-8.703800354E0,1.402134247E0,8.972752005E0
6.924785500E0,-1.729952545E0,-8.499175873E0,1.325343933E0,8.774124621E0
6.934803500E0,-1.550176392E0,-8.396639099E0,1.345402222E0,8.643882354E0
6.944821500E0,-1.200952606E0,-8.381370850E0,1.430575104E0,8.586979073E0
6.954839500E0,-9.244775391E-1,-8.527167664E0,1.515897675E0,8.710062735E0
6.964857500E0,-8.066725159E-1,-8.909921722E0,1.731150055E0,9.112316180E0
6.974875500E0,-7.652087402E-1,-9.463620300E0,1.988914032E0,9.700589293E0
6.984893500E0,-7.348219299E-1,-1.016566040E1,2.098186798E0,1.040591190E1
6.994911500E0,-7.610174561E-1,-1.094898148E1,2.156715088E0,1.118529226E1
7.004929500E0,-8.957373047E-1,-1.170940018E1,2.208956451E0,1.194955591E1
7.014947500E0,-1.155447235E0,-1.242730728E1,2.252515869E0,1.268254124E1
7.024966500E0,-1.105002136E0,-1.321586746E1,2.030826874E0,1.341657334E1
7.034984500E0,-7.270381165E-1,-1.381312546E1,1.599723358E0,1.392444376E1
7.045003375E0,-4.031117249E-1,-1.379890503E1,1.147064667E0,1.385236573E1
7.055021375E0,-7.424560547E-2,-1.354024292E1,5.420228577E-1,1.355129070E1
7.065039375E0,4.028123474E-1,-1.296947983E1,1.016386414E-1,1.297613175E1
7.075057375E0,8.044271851E-1,-1.194545929E1,-1.805245972E-1,1.197387531E1
7.085075375E0,1.027912445E0,-1.070828201E1,-3.263214111E-1,1.076245294E1
7.095093375E0,9.551637268E-1,-9.505982208E0,-4.155358887E-1,9.562881656E0
7.105111375E0,5.742059326E-1,-8.440647583E0,-3.606001282E-1,8.467837772E0
7.115129375E0,-5.658233643E-2,-7.499853973E0,-3.385958862E-1,7.507706598E0
7.125147375E0,-7.417076111E-1,-6.706204376E0,-5.592370605E-1,6.770232892E0
7.135165375E0,-1.289718018E0,-6.034102020E0,-8.419990540E-1,6.227577552E0
7.145183375E0,-1.591939545E0,-5.478607178E0,-9.225315857E-1,5.779314202E0
7.155201375E0,-1.796414337E0,-5.350174255E0,-1.192120972E0,5.768242492E0
7.165219375E0,-2.048340454E0,-5.490731964E0,-1.112336884E0,5.964991992E0
7.175238375E0,-2.417323151E0,-5.709576874E0,-8.228388977E-1,6.254580973E0
7.185256375E0,-2.550845490E0,-6.287974091E0,-5.445675659E-1,6.807494745E0
7.195274375E0,-2.495161285E0,-7.207511902E0,-4.625381470E-1,7.641204041E0
7.205292375E0,-1.976040802E0,-8.336913300E0,-1.004111938E0,8.626534727E0
7.215310375E0,-1.175056458E0,-1.041593994E1,-1.463356934E0,1.058366553E1
7.225328375E0,-8.981323242E-2,-1.317096085E1,-2.332299957E0,1.337616907E1
7.235346375E0,8.675958252E-1,-1.672397232E1,-2.554438019E0,1.694016311E1
7.245364375E0,1.625769196E0,-2.067620361E1,-1.819017334E0,2.081963845E1
7.255382375E0,2.122586060E0,-2.293635361E1,-1.490749969E0,2.308254804E1
7.265400375E0,2.582878876E0,-1.940804077E1,-2.154918823E0,1.969738523E1
7.275418375E0,3.020568695E0,-1.350641327E1,-2.245330811E0,1.402100371E1
7.285436375E0,3.594475250E0,-1.045051804E1,-7.074288940E-1,1.107402525E1
7.295454375E0,3.041076050E0,-8.104147339E0,-7.625143433E-1,8.689463491E0
7.305472375E0,2.667153625E0,-6.020630035E0,-4.643344116E-1,6.601310546E0
7.315490375E0,2.846480713E0,-4.414769440E0,9.610015869E-1,5.340052968E0
7.325509375E0,2.035018158E0,-5.264552307E0,6.673123169E-1,5.683495019E0
7.335527375E0,1.584305420E0,-6.271807709E0,9.262738037E-1,6.534797530E0
7.345545375E0,1.236728210E0,-6.452332306E0,1.381626892E0,6.713492513E0
7.355563375E0,3.611988831E-1,-7.379204865E0,1.595981140E0,7.558457836E0
7.365581375E0,-2.938389587E-1,-8.141719208E0,1.501228180E0,8.284178839E0
7.375599375E0,-5.974076843E-1,-8.708291016E0,1.568139038E0,8.868499783E0
7.385617375E0,-9.051676941E-1,-9.062005463E0,1.392853546E0,9.212996937E0
7.395635375E0,-9.678872681E-1,-9.345665588E0,1.261277161E0,9.479930966E0
7.405653375E0,-8.211923218E-1,-9.621990967E0,1.211580505E0,9.732676626E0
7.415671375E0,-7.683522034E-1,-9.645791473E0,1.215023346E0,9.752329977E0
7.425689375E0,-6.418652344E-1,-9.708960114E0,1.147364044E0,9.797568153E0
7.435707375E0,-4.969665527E-1,-9.717043304E0,9.475296021E-1,9.775772025E0
7.445725375E0,-3.390449524E-1,-9.569150848E0,6.797364807E-1,9.599252113E0
7.455743375E0,-2.897973633E-1,-9.579479370E0,5.306465149E-1,9.598541204E0
7.465761375E0,-3.957769775E-1,-9.680070190E0,5.962101746E-1,9.706485712E0
7.475779375E0,-3.456312561E-1,-9.503287811E0,7.746391296E-1,9.541069435E0
7.485798375E0,-1.691482544E-1,-9.113199005E0,1.142873383E0,9.186139930E0
7.495816375E0,3.041674805E-1,-8.836424561E0,1.418600006E0,8.954738569E0
7.505834375E0,7.220983887E-1,-8.565637665E0,1.781595154E0,8.778704687E0
7.515852375E0,1.081800385E0,-8.375982056E0,1.903890839E0,8.657492004E0
7.525870375E0,1.482367401E0,-8.145910492E0,1.821861420E0,8.477762080E0
7.535888375E0,1.868564301E0,-7.954458618E0,1.466201019E0,8.301487209E0
7.545906375E0,2.327210541E0,-7.824079742E0,1.210083618E0,8.252056415E0
7.555924375E0,3.048859863E0,-7.743547211E0,1.247655487E0,8.415147894E0
7.565942375E0,3.910767517E0,-7.640261993E0,1.418600006E0,8.699432848E0
7.575960375E0,4.712500305E0,-7.676786041E0,1.407523041E0,9.117117097E0
7.585978375E0,5.332361298E0,-7.848029938E0,1.326391754E0,9.580447067E0
7.595996375E0,5.611979828E0,-8.443042603E0,8.955876160E-1,1.017749297E1
7.606014375E0,5.782924347E0,-9.088949432E0,1.067430267E0,1.082546180E1
7.616032375E0,5.451214142E0,-9.980046387E0,1.606609039E0,1.148469652E1
7.626051375E0,4.587061157E0,-1.109163483E1,1.863175507E0,1.214647752E1
7.636069375E0,3.816463623E0,-1.185280197E1,1.988914032E0,1.260992023E1
7.646087375E0,3.372935944E0,-1.234393066E1,2.160606995E0,1.297757850E1
7.656105375E0,3.295846252E0,-1.241398499E1,2.621348877E0,1.310881748E1
7.666123375E0,3.780987396E0,-1.197824112E1,3.074756012E0,1.293167625E1
7.676141375E0,4.306694183E0,-1.156689651E1,3.203488312E0,1.275158998E1
7.686159375E0,4.563859406E0,-1.147723297E1,3.435206451E0,1.282015338E1
7.696177375E0,4.431983643E0,-1.222702377E1,3.299289093E0,1.341744752E1
7.706195375E0,3.778143311E0,-1.320239548E1,2.126028900E0,1.389595668E1
7.716213375E0,2.439477081E0,-1.345596817E1,5.319937134E-1,1.368565472E1
7.726231375E0,6.695576477E-1,-1.324805054E1,-3.212319946E-1,1.326884850E1
7.736249375E0,-6.322851562E-1,-1.300809952E1,-4.409829712E-1,1.303092106E1
7.746267375E0,-1.221609650E0,-1.296663574E1,-1.616638184E-1,1.302505692E1
7.756285375E0,-1.325044556E0,-1.224124420E1,7.701484680E-1,1.233681204E1
7.766303375E0,-1.095721436E0,-1.066247726E1,1.096469879E0,1.077456603E1
7.776321375E0,-1.669029236E-1,-8.820856934E0,1.200353851E0,8.903719616E0
7.786340375E0,-3.652404785E-2,-7.357949066E0,5.830375671E-1,7.381102985E0
7.796358375E0,-6.421646118E-1,-7.066654816E0,-1.003962250E0,7.166444437E0
7.806376375E0,-5.878276062E-1,-7.614665222E0,-2.264041901E0,7.965836646E0
7.816394375E0,1.585203552E-1,-8.334368591E0,-2.271676025E0,8.639869240E0
7.826412375E0,2.320175171E-1,-9.215286713E0,-2.536475372E0,9.560807949E0
7.836430375E0,3.604504395E-1,-1.002270767E1,-2.489323425E0,1.033350496E1
7.846448375E0,2.978805542E-1,-1.078477295E1,-2.402354279E0,1.105311569E1
7.856466375E0,-9.026229858E-2,-1.148232239E1,-1.793719940E0,1.162193211E1
7.866484375E0,-7.937992859E-1,-1.205503143E1,-1.197509766E-1,1.208173168E1
7.876502375E0,-2.159858551E0,-1.242117004E1,1.052611084E0,1.265142064E1
7.886520375E0,-3.606300659E0,-1.176718002E1,1.765129395E0,1.243332666E1
7.896538375E0,-4.766088867E0,-1.052281769E1,1.883084106E0,1.170432830E1
7.906556375E0,-5.392236786E0,-9.815688171E0,2.202070770E0,1.141372277E1
7.916574375E0,-5.343438263E0,-9.313931580E0,2.955454102E0,1.113716135E1
7.926592375E0,-4.963677979E0,-9.042845306E0,3.217409363E0,1.080568708E1
7.936611375E0,-4.158652039E0,-8.374784546E0,3.205434265E0,9.884645254E0
7.946629375E0,-3.056344299E0,-7.701933746E0,2.923570404E0,8.786824672E0
7.956647375E0,-2.251168671E0,-7.499404907E0,2.171683960E0,8.125579707E0
7.966665375E0,-1.537153473E0,-7.263944550E0,1.756297760E0,7.629699407E0
7.976683375E0,-8.107141113E-1,-7.097341003E0,1.224902802E0,7.247750931E0
7.986701375E0,-4.797523499E-1,-7.157515869E0,1.285227356E0,7.287798371E0
7.996719375E0,-4.947212219E-1,-7.433841248E0,1.458866272E0,7.591774205E0
8.006737375E0,-7.453001404E-1,-7.921078033E0,1.301842804E0,8.061869771E0
8.016755375E0,-1.086291046E0,-8.441096649E0,1.174457703E0,8.591361462E0
8.026773375E0,-1.382974091E0,-9.101672974E0,8.683442688E-1,9.247004381E0
8.036791375E0,-1.482217712E0,-9.901010742E0,3.499722290E-1,1.001745794E1
8.046808667E0,-1.387015686E0,-1.059706329E1,-3.794609070E-1,1.069418316E1
8.056826667E0,-9.412426758E-1,-1.126198059E1,-1.223256226E0,1.136725562E1
8.066844667E0,-3.866459656E-1,-1.155477173E1,-1.594184875E0,1.167063281E1
8.076863667E0,1.002914429E-2,-1.145163620E1,-1.659000092E0,1.157118635E1
8.086881667E0,2.124082947E-1,-1.106963058E1,-1.411115570E0,1.116123137E1
8.096899667E0,3.061134338E-1,-1.062969543E1,-1.008752289E0,1.068184027E1
8.106917667E0,7.539820862E-1,-9.862989807E0,-4.733157349E-1,9.903084606E0
8.116935667E0,1.024170227E0,-9.799970856E0,-7.439529419E-2,9.853623094E0
8.126953667E0,5.872288513E-1,-9.609566803E0,-1.981878662E-1,9.629532195E0
8.136971667E0,2.411485291E-1,-9.167086945E0,2.561174011E-1,9.173834083E0
8.146989667E0,3.233276367E-2,-8.977581024E0,6.340814209E-1,9.000003650E0
8.157007667E0,-2.472857666E-1,-8.916058960E0,7.804769897E-1,8.953569230E0
8.167025667E0,-3.897894287E-1,-8.978479156E0,7.958949280E-1,9.022110202E0
8.177043667E0,-4.764591980E-1,-9.073830872E0,7.098239136E-1,9.114015034E0
8.187061667E0,-5.270539856E-1,-9.117390289E0,7.960446167E-1,9.167239422E0
8.197079667E0,-4.809498596E-1,-9.114097137E0,8.726852417E-1,9.168405474E0
8.207097667E0,-3.784130859E-1,-9.042994995E0,1.009351044E0,9.107016222E0
8.217115667E0,-3.308120728E-1,-8.905281372E0,1.263971558E0,9.000616481E0
8.227134667E0,-2.468367004E-1,-8.895102539E0,1.247655487E0,8.985567414E0
8.237152667E0,-6.361770630E-2,-9.017547913E0,1.164278870E0,9.092621341E0
8.247170667E0,-1.466949463E-1,-8.961863708E0,1.382525024E0,9.069062574E0
8.257188667E0,-4.137396240E-1,-8.802594910E0,1.328786774E0,8.911931996E0
8.267206667E0,-5.875282288E-1,-8.660091248E0,1.112037506E0,8.750942649E0
8.277224667E0,-5.373825073E-1,-8.525521088E0,1.005010071E0,8.601356580E0
8.287242667E0,-4.340972900E-1,-8.547375641E0,1.010249176E0,8.617811451E0
8.297260667E0,-3.604504395E-1,-8.765621796E0,1.033001862E0,8.833637010E0
8.307278667E0,-3.061134338E-1,-9.203311615E0,1.194216614E0,9.285515787E0
8.317296667E0,-2.685415649E-1,-9.917476501E0,1.659299469E0,1.005891294E1
8.327314667E0,-2.697390747E-1,-1.058239380E1,1.990261230E0,1.077130250E1
8.337332667E0,-2.603086853E-1,-1.108953918E1,2.366578674E0,1.134223675E1
8.347350667E0,-2.802172852E-1,-1.148980682E1,2.785856781E0,1.182603825E1
8.357368667E0,-2.499801636E-1,-1.172676407E1,3.017724609E0,1.211140567E1
8.367386667E0,7.469467163E-2,-1.192255692E1,2.934048615E0,1.227850088E1
8.377405667E0,3.972738647E-1,-1.200832855E1,2.561174011E0,1.228484406E1
8.387423667E0,5.254074097E-1,-1.179053146E1,2.002236328E0,1.197086611E1
8.397441667E0,7.752378845E-1,-1.142154877E1,1.361568604E0,1.152851417E1
8.407459667E0,1.139430542E0,-1.095990875E1,7.707472229E-1,1.104590210E1
8.417477667E0,1.468446350E0,-1.042911255E1,2.992277527E-1,1.053623559E1
8.427495667E0,1.729802856E0,-9.904752960E0,3.203338623E-2,1.005471905E1
8.437513667E0,1.735491028E0,-9.316176910E0,-8.966354370E-2,9.476872949E0
8.447531667E0,1.352437592E0,-8.691525879E0,-3.186872864E-1,8.801890202E0
8.457549667E0,5.310955811E-1,-7.994275818E0,-4.311035156E-1,8.023487933E0
8.467567667E0,-4.305047607E-1,-7.403304749E0,-4.592449951E-1,7.430017599E0
8.477585667E0,-1.256038055E0,-6.849456482E0,-8.355624390E-1,7.013618915E0
8.487603667E0,-1.831142120E0,-6.449338531E0,-1.193617859E0,6.809682265E0
8.497621667E0,-2.394570465E0,-6.309379578E0,-1.193318481E0,6.853192494E0
8.507639667E0,-2.995570679E0,-6.370003510E0,-1.017434235E0,7.112352693E0
8.517657667E0,-3.521576843E0,-6.726562042E0,-6.963519287E-1,7.624503025E0
8.527676667E0,-3.736829224E0,-7.694449310E0,-4.577481079E-1,8.566094569E0
8.537694667E0,-3.560645599E0,-9.073681183E0,-5.792953491E-1,9.764500519E0
8.547712667E0,-2.684218140E0,-1.072399933E1,-6.496490479E-1,1.107389870E1
8.557730667E0,-1.584305420E0,-1.328846649E1,-6.033952332E-1,1.339617300E1
8.567748667E0,-7.232958984E-1,-1.683743637E1,-1.567989349E0,1.692574994E1
8.577766667E0,1.369651794E-1,-2.139545792E1,-1.825004883E0,2.147358893E1
8.587784667E0,1.518592072E0,-2.524964310E1,-1.796264648E0,2.535896617E1
8.597802667E0,3.948638763E0,-2.124217667E1,-3.402125244E0,2.187227180E1
8.607820667E0,5.676795044E0,-1.426069473E1,-5.209017792E0,1.620886432E1
8.617838667E0,6.007457428E0,-1.069301376E1,-4.415817261E0,1.303570214E1
8.627856667E0,5.977519684E0,-7.931556244E0,-2.645299072E0,1.027803158E1
8.637874667E0,6.226601715E0,-5.244194641E0,-5.733078003E-2,8.140972495E0
8.647892667E0,6.265221405E0,-4.395160217E0,2.125579834E-1,7.656083430E0
8.657910667E0,4.809348907E0,-5.271737366E0,6.346801758E-1,7.164068027E0
8.667929667E0,2.606230316E0,-5.559289398E0,6.520440674E-1,6.174406574E0
8.677947667E0,1.223405914E0,-6.386469269E0,4.746629333E-1,6.519893914E0
8.687965667E0,1.030906219E0,-7.260651398E0,1.162183228E0,7.424991327E0
8.697983667E0,3.520678711E-1,-7.597001953E0,1.369202728E0,7.727425611E0
8.708001667E0,-3.137475586E-1,-8.266559601E0,1.585951996E0,8.423163829E0
8.718019667E0,-6.938072205E-1,-8.950337677E0,1.593885498E0,9.117586521E0
8.728037667E0,-9.063652039E-1,-9.679920502E0,1.633103943E0,9.858467796E0
8.738055667E0,-1.076112213E0,-1.019335281E1,1.631906433E0,1.037909330E1
8.748073667E0,-1.239572296E0,-1.047596512E1,1.872605896E0,1.071396460E1
8.758091667E0,-1.249900818E0,-1.013527359E1,1.714684296E0,1.035500676E1
8.768109667E0,-1.086440735E0,-9.529034271E0,1.448088684E0,9.699474648E0
8.778127667E0,-9.916877747E-1,-9.008267212E0,9.907896423E-1,9.116687278E0
8.788145667E0,-1.136436768E0,-8.650960236E0,5.025050354E-1,8.739743293E0
8.798163667E0,-1.329385529E0,-8.425978088E0,3.502716064E-1,8.537392039E0
8.808181667E0,-1.209484863E0,-8.261470184E0,6.653663635E-1,8.376004754E0
8.818200667E0,-8.960366821E-1,-8.028554535E0,1.321901093E0,8.185840956E0
8.828218667E0,-5.046006775E-1,-7.745343475E0,1.938019867E0,8.000055525E0
8.838236667E0,-1.419049072E-1,-7.676037598E0,2.260898438E0,8.003333802E0
8.848254667E0,2.332150269E-1,-7.733368378E0,2.256258087E0,8.059161015E0
8.858272667E0,6.897656250E-1,-7.818840637E0,2.038760376E0,8.109660252E0
8.868290667E0,1.262324982E0,-7.965984650E0,1.690434723E0,8.240627728E0
8.878308667E0,1.833986206E0,-8.199199677E0,1.426084442E0,8.521977328E0
8.888326667E0,2.491568756E0,-8.369395752E0,1.626817017E0,8.882636643E0
8.898344667E0,3.200494537E0,-8.806935883E0,1.504521332E0,9.490462020E0
8.908362667E0,3.924389191E0,-9.202263794E0,1.383273468E0,1.009930369E1
8.918380667E0,4.566703491E0,-9.475595398E0,1.157093811E0,1.058208651E1
8.928398667E0,5.008584595E0,-9.826166382E0,9.116043091E-1,1.106663851E1
8.938416667E0,5.094655609E0,-1.034798126E1,7.107220459E-1,1.155600960E1
8.948434667E0,4.752616882E0,-1.081785416E1,7.536827087E-1,1.183982151E1
8.958453667E0,4.060156860E0,-1.120884109E1,1.087488556E0,1.197103269E1
8.968471667E0,3.384911041E0,-1.143996048E1,1.444945221E0,1.201741175E1
8.978489667E0,3.047512665E0,-1.158605667E1,1.922302551E0,1.213339564E1
8.988507667E0,3.202440491E0,-1.146301254E1,2.537223816E0,1.216937905E1
8.998525667E0,3.518283691E0,-1.106783432E1,3.101699982E0,1.202064139E1
9.008543667E0,3.780388641E0,-1.058927948E1,3.369193726E0,1.173778704E1
9.018561667E0,4.104764099E0,-1.010174332E1,3.585194550E0,1.147814995E1
9.028579667E0,4.437671814E0,-9.734407196E0,3.655997314E0,1.130565924E1
9.038597667E0,4.585115204E0,-9.784253540E0,3.532803497E0,1.136818364E1
9.048616375E0,3.970942383E0,-1.068852310E1,2.811004486E0,1.174370707E1
9.058634375E0,3.308420105E0,-1.198572556E1,1.197958832E0,1.249153177E1
9.068652375E0,2.355501709E0,-1.307575882E1,5.284011841E-2,1.328633317E1
9.078670375E0,7.433541870E-1,-1.332978058E1,-6.162684631E-1,1.336470772E1
9.088688375E0,-5.040019226E-1,-1.308608734E1,-7.705975342E-1,1.311844200E1
9.098707375E0,-1.031205597E0,-1.264315842E1,-6.634204102E-1,1.270247875E1
9.108725375E0,-8.325686646E-1,-1.175819870E1,3.665876770E-1,1.179333684E1
9.118743375E0,-5.656736755E-1,-1.091994186E1,1.576820984E0,1.104769123E1
9.128761375E0,-7.042854309E-1,-1.003797592E1,1.400637360E0,1.015966356E1
9.138779375E0,-7.544311523E-1,-9.382339325E0,1.296304321E-1,9.413514839E0
9.148797375E0,-3.038681030E-1,-9.055718536E0,-1.078357544E0,9.124759122E0
9.158815375E0,-1.646575928E-3,-8.756939850E0,-1.954785004E0,8.972468036E0
9.168833375E0,-5.508544922E-2,-8.462202759E0,-2.423759766E0,8.802642861E0
9.178851375E0,-3.760180664E-1,-8.342152405E0,-2.379900970E0,8.683134512E0
9.188869375E0,-8.586145020E-1,-8.544681244E0,-2.048041077E0,8.828548503E0
9.198887375E0,-1.266366577E0,-9.010811920E0,-1.402433624E0,9.206803780E0
9.208905375E0,-1.493444366E0,-9.763746185E0,-4.357438660E-1,9.886909950E0
9.218923375E0,-1.921703796E0,-1.056502991E1,1.832189941E-1,1.073994281E1
9.228941375E0,-2.567460938E0,-1.105466171E1,6.191125488E-1,1.136576885E1
9.238959375E0,-3.175646210E0,-1.135299133E1,1.701661377E0,1.191095263E1
9.248978375E0,-3.677103424E0,-1.123339005E1,2.908451843E0,1.217247853E1
9.258996375E0,-4.194427643E0,-1.095167587E1,2.869383087E0,1.207335028E1
9.269014375E0,-4.597239990E0,-1.092907288E1,2.886297913E0,1.220286709E1
9.279032375E0,-4.948559418E0,-1.076935501E1,2.590063934E0,1.213159836E1
9.289050375E0,-4.885390778E0,-9.881401520E0,1.563947754E0,1.113351120E1
9.299068375E0,-4.151317291E0,-8.778644714E0,1.127305756E0,9.775932515E0
9.309086375E0,-2.961741028E0,-8.472531281E0,1.898801422E0,9.173938252E0
9.319104375E0,-1.685195618E0,-8.162226562E0,1.994003448E0,8.569590217E0
9.329122375E0,-8.147557068E-1,-7.663014679E0,1.578617249E0,7.866235011E0
9.339140375E0,-7.897576904E-1,-7.286098480E0,1.382075958E0,7.457954292E0
9.349158375E0,-1.011446686E0,-7.109166412E0,5.140310669E-1,7.199131851E0
9.359176375E0,-8.183482361E-1,-7.331903229E0,8.610095215E-1,7.427505381E0
9.369194375E0,-7.210505676E-1,-7.834707642E0,1.043031006E0,7.936653667E0
9.379212375E0,-6.569837952E-1,-8.200696564E0,5.417234802E-1,8.244787212E0
9.389231375E0,-5.201683044E-1,-8.743168488E0,2.246827698E-1,8.761509722E0
9.399249375E0,-2.679428101E-1,-9.699080658E0,-2.794688416E-1,9.706804922E0
9.409267375E0,7.274871826E-2,-1.070019882E1,-7.705975342E-1,1.072815771E1
9.419285375E0,3.948788452E-1,-1.152992340E1,-1.091979218E0,1.158824756E1
9.429303375E0,7.214996338E-1,-1.202569244E1,-1.058898010E0,1.209376308E1
9.439321375E0,1.024918671E0,-1.219214630E1,-7.447013855E-1,1.225779221E1
9.449339375E0,1.248254242E0,-1.189681046E1,-2.393522644E-1,1.196451115E1
9.459357375E0,1.339863739E0,-1.123668320E1,3.263214111E-1,1.132098802E1
9.469375375E0,1.270707550E0,-1.027508286E1,6.725514221E-1,1.037517955E1
9.479393375E0,1.153351593E0,-9.377998352E0,8.632548523E-1,9.488007269E0
9.489411375E0,1.003513184E0,-8.710835724E0,8.839118958E-1,8.812888173E0
9.499429375E0,7.244934082E-1,-8.237370300E0,7.821235657E-1,8.306074731E0
9.509447375E0,4.586462402E-1,-8.240513763E0,5.198689270E-1,8.269624366E0
9.519465375E0,2.911445618E-1,-8.478219452E0,5.306465149E-1,8.499797407E0
9.529483375E0,6.286926270E-2,-8.673114166E0,4.397854614E-1,8.684484621E0
9.539502375E0,-9.864486694E-2,-8.780141602E0,5.363346863E-1,8.797060432E0
9.549520375E0,-1.047821045E-1,-8.798703003E0,5.951623535E-1,8.819431504E0
9.559538375E0,-1.269360352E-1,-8.745114441E0,9.292675781E-1,8.795264497E0
9.569556375E0,-2.406994629E-1,-8.700507202E0,1.281934204E0,8.797733635E0
9.579574375E0,-1.920506287E-1,-8.646170197E0,1.589544525E0,8.793167479E0
9.589592375E0,-1.733395386E-1,-8.788823547E0,1.697021027E0,8.952840125E0
9.599610375E0,-3.372486877E-1,-8.845405884E0,1.954934692E0,9.065137152E0
9.609628375E0,-4.517605591E-1,-8.705297241E0,2.094594269E0,8.965133173E0
9.619646375E0,-6.267466736E-1,-8.460556183E0,2.223476257E0,8.770271888E0
9.629664375E0,-7.653584290E-1,-8.387358398E0,2.033072205E0,8.664117786E0
9.639682375E0,-5.984555054E-1,-8.553213501E0,1.636247406E0,8.728855352E0
9.649700375E0,-2.348616028E-1,-9.126820679E0,1.249152374E0,9.214900831E0
9.659718375E0,5.463638306E-2,-9.991722107E0,1.259181519E0,1.007090035E1
9.669736375E0,2.315684509E-1,-1.091649902E1,1.527872772E0,1.102533311E1
9.679755375E0,4.245172119E-1,-1.163754959E1,1.829794922E0,1.178816885E1
9.689773375E0,3.917353821E-1,-1.209993805E1,2.178719330E0,1.230076320E1
9.699791375E0,3.528163147E-1,-1.223914856E1,2.615660706E0,1.252049990E1
9.709809375E0,3.597019958E-1,-1.226624222E1,2.772684174E0,1.258085296E1
9.719827375E0,5.131329346E-1,-1.228585144E1,2.317031708E0,1.251295676E1
9.729845375E0,6.870712280E-1,-1.205727676E1,1.729503479E0,1.220004804E1
9.739863375E0,8.167016602E-1,-1.161659317E1,1.218615875E0,1.170885405E1
9.749881375E0,9.644444275E-1,-1.108325226E1,8.294252014E-1,1.115601093E1
9.759899375E0,9.451345825E-1,-1.022763153E1,6.210585022E-1,1.028996792E1
9.769917375E0,6.884184265E-1,-9.320667572E0,5.914201355E-1,9.364749954E0
9.779935375E0,3.620970154E-1,-8.578959961E0,4.900808716E-1,8.600572511E0
9.789953375E0,-1.787283325E-1,-7.868237915E0,2.414479065E-1,7.873970332E0
9.799971375E0,-9.776170349E-1,-7.268884277E0,-6.915618896E-2,7.334657203E0
9.809989375E0,-1.789977722E0,-6.839577026E0,-4.291575623E-1,7.082937975E0
9.820008375E0,-2.311942291E0,-6.381230164E0,-9.479786682E-1,6.853016789E0
9.830026375E0,-2.604434052E0,-5.839057617E0,-1.416953430E0,6.548696634E0
9.840044375E0,-2.863245850E0,-5.613925781E0,-1.656455383E0,6.515994468E0
9.850062375E0,-3.105142822E0,-5.933960266E0,-1.654210052E0,6.898565596E0
9.860080375E0,-3.198847961E0,-6.849007416E0,-1.418600006E0,7.691160955E0
9.870098375E0,-3.150348816E0,-8.085436249E0,-1.200653229E0,8.760168102E0
9.880116375E0,-2.628533936E0,-9.978250122E0,-1.200653229E0,1.038827389E1
9.890134375E0,-1.778900757E0,-1.264001495E1,-1.263971558E0,1.282700628E1
9.900152375E0,-6.966513062E-1,-1.538141418E1,-1.697470093E0,1.549046901E1
9.910170375E0,4.661306763E-1,-1.861798370E1,-2.992427216E0,1.886269375E1
9.920188375E0,1.888921967E0,-2.308589264E1,-2.386038208E0,2.328561022E1
9.930206375E0,4.364324341E0,-2.458038483E1,-1.960772552E0,2.504171069E1
9.940224375E0,6.683152313E0,-1.813763260E1,-3.321143646E0,1.961296093E1
9.950242375E0,7.269932098E0,-1.198407898E1,-4.372108154E0,1.468282641E1
9.960261375E0,6.593189392E0,-8.434061279E0,-3.425626373E0,1.124003790E1
9.970279375E0,5.566025391E0,-5.870043182E0,-2.393522644E0,8.436053358E0
9.980297375E0,5.672603760E0,-4.288132782E0,-1.349593506E0,7.237949903E0
9.990315375E0,4.453987885E0,-4.819827118E0,-1.947450256E-1,6.565566780E0
1.000033337E1,2.102827148E0,-5.660029907E0,8.382568359E-3,6.038037002E0
1.001035137E1,6.033952332E-1,-6.334676971E0,1.125509491E0,6.462119602E0
1.002036938E1,2.303709412E-1,-7.237449646E0,2.347268829E0,7.612057482E0
1.003038737E1,-4.134402466E-1,-7.849676514E0,2.625839539E0,8.287544117E0
1.004040537E1,-1.156944122E0,-8.508606262E0,2.600093079E0,8.971921993E0
1.005042317E1,-1.795067139E0,-9.275311890E0,2.440375214E0,9.757515456E0
1.006044117E1,-1.988764343E0,-9.841434631E0,1.830992432E0,1.020595672E1
1.007045917E1,-1.756148071E0,-1.014440460E1,1.340462494E0,1.038218862E1
1.008047717E1,-1.210532684E0,-1.020457947E1,1.000070343E0,1.032467782E1
1.009049517E1,-5.658233643E-1,-1.015802628E1,6.643185425E-1,1.019543883E1
1.010051417E1,-2.454895020E-2,-9.986782379E0,2.067201233E-1,9.988951804E0
1.011053217E1,2.799179077E-1,-9.773326263E0,-3.492237854E-1,9.783568753E0
1.012055017E1,3.585044861E-1,-9.476044464E0,-6.807843018E-1,9.507229429E0
1.013056817E1,1.067280579E-1,-9.265133057E0,-5.596861267E-1,9.282635940E0
1.014058617E1,-2.598596191E-1,-9.101972351E0,-1.829196167E-1,9.107518174E0
1.015060417E1,-3.303630066E-1,-8.769064636E0,5.565426636E-1,8.792916129E0
1.016062217E1,-1.703457642E-1,-8.398585052E0,1.169218597E0,8.481292395E0
1.017064017E1,2.228865051E-1,-8.008196869E0,1.692979431E0,8.188227820E0
1.018065817E1,7.110214233E-1,-7.677684174E0,2.026485901E0,7.972391789E0
1.019067617E1,1.001118164E0,-7.588469696E0,2.102228394E0,7.937661754E0
1.020069417E1,1.382974091E0,-7.565417633E0,2.004781036E0,7.947786377E0
1.021071217E1,1.926044769E0,-7.722141724E0,1.916015625E0,8.186100239E0
1.022073017E1,2.487676849E0,-7.947572937E0,1.981130219E0,8.560217792E0
1.023074817E1,3.206482086E0,-8.212372284E0,1.958676910E0,9.031112951E0
1.024076717E1,3.917952576E0,-8.566086731E0,1.834584961E0,9.596556479E0
1.025078517E1,4.497696991E0,-8.957073669E0,1.395847321E0,1.011962631E1
1.026080317E1,4.866829376E0,-9.395661621E0,9.949809265E-1,1.062800416E1
1.027082117E1,4.815935211E0,-9.959539032E0,5.183720398E-1,1.107494286E1
1.028083917E1,4.533173218E0,-1.048689240E1,6.126759338E-1,1.144115131E1
1.029085717E1,4.015100555E0,-1.105047043E1,9.433383179E-1,1.179507594E1
1.030087517E1,3.581901398E0,-1.146151566E1,1.425785065E0,1.209252752E1
1.031089317E1,3.339705048E0,-1.166958298E1,1.974693604E0,1.229765065E1
1.032091117E1,3.457210693E0,-1.159922928E1,2.534080353E0,1.236592046E1
1.033092917E1,3.891906738E0,-1.133158585E1,3.188968506E0,1.239843926E1
1.034094717E1,4.136198730E0,-1.093176727E1,3.412154388E0,1.217597935E1
1.035096517E1,4.604874115E0,-1.033540741E1,3.504662018E0,1.184517487E1
1.036098317E1,5.241500244E0,-9.830956421E0,3.367397461E0,1.163874541E1
1.037100217E1,5.524112549E0,-9.715845795E0,2.841241608E0,1.153196136E1
1.038102017E1,4.956792297E0,-1.038375687E1,2.009571075E0,1.168034984E1
1.039103817E1,3.810326385E0,-1.149100433E1,6.409671021E-1,1.212322591E1
1.040105617E1,2.599344635E0,-1.239467514E1,-7.102729797E-1,1.268420483E1
1.041107417E1,7.084767151E-1,-1.266501297E1,-1.259929962E0,1.274723171E1
1.042109217E1,-5.049000549E-1,-1.239272919E1,-3.399430847E-1,1.240766787E1
1.043111017E1,-4.529580688E-1,-1.203901474E1,1.034049683E0,1.209182805E1
1.044112817E1,1.818717957E-1,-1.166913391E1,1.478774872E0,1.176386581E1
1.045114617E1,5.960604858E-1,-1.128443390E1,2.222129059E0,1.151657910E1
1.046116417E1,4.483177185E-1,-1.071187454E1,2.066003723E0,1.091849881E1
1.047118217E1,7.319778442E-2,-9.783505096E0,1.012344818E0,9.836014026E0
1.048120017E1,-1.966909790E-1,-9.235045624E0,-9.654922485E-2,9.237644546E0
1.049121817E1,-2.450404358E-1,-8.915909271E0,-1.043629761E0,8.980125056E0
1.050123617E1,-5.562432861E-1,-8.408165131E0,-1.585353241E0,8.574379998E0
1.051125517E1,-1.168619843E0,-8.096213837E0,-2.023941193E0,8.426784012E0
1.052127317E1,-1.753303986E0,-8.255782013E0,-2.138453064E0,8.706606286E0
1.053129117E1,-2.158361664E0,-8.859776001E0,-1.587748260E0,9.256084507E0
1.054130917E1,-2.049088898E0,-9.815688171E0,-8.761280823E-1,1.006549055E1
1.055132717E1,-2.080523529E0,-1.075737991E1,-4.243675232E-1,1.096493906E1
1.056134517E1,-2.128423920E0,-1.142334503E1,9.086105347E-2,1.162029500E1
1.057136317E1,-2.091450806E0,-1.205682770E1,6.171665955E-1,1.225243466E1
1.058138117E1,-2.451302490E0,-1.231758545E1,1.519639893E0,1.265073518E1
1.059139917E1,-2.831212463E0,-1.172391998E1,2.111359406E0,1.224434164E1
1.060141717E1,-3.106340332E0,-1.058568695E1,2.152374115E0,1.124005484E1
1.061143517E1,-3.009342041E0,-9.404642944E0,2.016456757E0,1.007817177E1
1.062145317E1,-2.701731720E0,-8.767567749E0,2.014510803E0,9.392968237E0
1.063147117E1,-2.125430145E0,-8.072413330E0,1.816173248E0,8.542821287E0
1.064148917E1,-1.386117554E0,-7.685617676E0,1.843416595E0,8.024227419E0
1.065150817E1,-6.298901367E-1,-7.686665497E0,1.492396545E0,7.855497151E0
1.066152617E1,1.496887207E-2,-7.853718109E0,1.200802917E0,7.945000935E0
1.067154417E1,2.725831604E-1,-8.056097260E0,1.519041138E0,8.202590482E0
1.068156217E1,5.989045715E-1,-8.094567261E0,1.229543152E0,8.209292429E0
1.069158017E1,9.984237671E-1,-8.322543182E0,4.273612976E-1,8.393105070E0
1.070159817E1,1.110839996E0,-8.677754517E0,1.797761536E-1,8.750411900E0
1.071161617E1,1.025218048E0,-9.254355469E0,1.670526123E-1,9.312468725E0
1.072163417E1,9.916877747E-1,-9.761949921E0,-5.298980713E-2,9.812335034E0
1.073165217E1,9.732760620E-1,-1.014994308E1,-2.689906311E-1,1.020004740E1
1.074167017E1,1.024469604E0,-1.034663406E1,-6.876699829E-1,1.041994551E1
1.075168817E1,1.008003845E0,-1.042671753E1,-8.804690552E-1,1.051226598E1
1.076170617E1,9.434880066E-1,-1.030367340E1,-9.602531433E-1,1.039124349E1
1.077172417E1,8.228388977E-1,-1.011371841E1,-9.458830261E-1,1.019112647E1
1.078174217E1,7.720944214E-1,-9.993518372E0,-7.310797119E-1,1.004992621E1
1.079176117E1,7.924520874E-1,-9.933193817E0,-2.754272461E-1,9.968559569E0
1.080177917E1,7.304809570E-1,-9.767189026E0,2.070195007E-1,9.796654580E0
1.081179717E1,7.587721252E-1,-9.555080109E0,4.561015320E-1,9.596005400E0
1.082181517E1,7.093748474E-1,-9.343270569E0,6.587800598E-1,9.393290625E0
1.083183317E1,6.469546509E-1,-9.176217957E0,7.602690125E-1,9.230359434E0
1.084185117E1,5.044509888E-1,-9.116492157E0,6.831793213E-1,9.155961666E0
1.085186917E1,3.725752258E-1,-9.090895386E0,5.441184998E-1,9.114782288E0
1.086188717E1,1.197509766E-1,-9.107959900E0,5.864804077E-1,9.127608290E0
1.087190517E1,-9.729766846E-2,-9.079668732E0,7.884104919E-1,9.114353637E0
1.088192317E1,-3.281176758E-1,-9.054221649E0,9.614506531E-1,9.111036068E0
1.089194117E1,-4.824467468E-1,-8.969048767E0,1.126257935E0,9.052350390E0
1.090195917E1,-6.432124329E-1,-8.976832581E0,1.286724243E0,9.091364292E0
1.091197717E1,-7.415579224E-1,-9.001381531E0,1.455573120E0,9.148413563E0
1.092199617E1,-7.761360168E-1,-9.053473206E0,1.612446899E0,9.228637451E0
1.093201417E1,-8.804690552E-1,-9.062753906E0,1.683698730E0,9.259782694E0
1.094203217E1,-9.520202637E-1,-8.941655731E0,1.739981689E0,9.158989359E0
1.095205017E1,-9.873468018E-1,-8.798104248E0,1.900298309E0,9.054977953E0
1.096206817E1,-9.310638428E-1,-8.641679535E0,1.763183441E0,8.868727130E0
1.097208617E1,-7.512876892E-1,-8.706794128E0,1.667831726E0,8.896873600E0
1.098210417E1,-5.263055420E-1,-8.909622345E0,1.670675812E0,9.080172109E0
1.099212217E1,-5.373825073E-2,-9.156309357E0,1.683099976E0,9.309871877E0
1.100214017E1,3.939807129E-1,-9.633516998E0,1.692680054E0,9.789026321E0
1.101215817E1,7.212002563E-1,-1.024095383E1,1.677411804E0,1.040245045E1
1.102217617E1,7.915539551E-1,-1.067415298E1,1.796114960E0,1.085311608E1
1.103219417E1,7.277865601E-1,-1.122680374E1,1.853296051E0,1.140199552E1
1.104221217E1,7.599696350E-1,-1.178738800E1,1.824855194E0,1.195199424E1
1.105223050E1,7.048841858E-1,-1.208422073E1,1.655856628E0,1.221749212E1
1.106224950E1,5.613327026E-1,-1.218960159E1,1.246457977E0,1.226601561E1
1.107226750E1,6.197113037E-1,-1.211625412E1,8.119116211E-1,1.215922927E1
1.108228550E1,6.301895142E-1,-1.169308411E1,6.036946106E-1,1.172560454E1
1.109230350E1,3.861968994E-1,-1.093970078E1,3.577560425E-1,1.095236004E1
1.110232150E1,2.155517578E-2,-1.012943573E1,-4.490661621E-4,1.012945867E1
1.111233950E1,-4.995112610E-1,-9.391170959E0,-4.123924255E-1,9.413483468E0
1.112235750E1,-1.066681824E0,-8.711883545E0,-6.310876465E-1,8.799602072E0
1.113237550E1,-1.337019653E0,-8.000113678E0,-1.074315948E0,8.181906573E0
1.114239350E1,-1.365759888E0,-7.299869843E0,-1.358425140E0,7.549749575E0
1.115241150E1,-1.409019928E0,-6.564449158E0,-1.417402496E0,6.861950141E0
1.116242950E1,-1.552272034E0,-6.041436768E0,-1.353934479E0,6.382918240E0
1.117244750E1,-1.710792389E0,-6.145620117E0,-1.346599731E0,6.519876384E0
1.118246550E1,-1.726809082E0,-6.925648041E0,-1.087787933E0,7.220093696E0
1.119248350E1,-2.045346680E0,-8.658744049E0,-8.762777710E-1,8.940086928E0
1.120250250E1,-1.642234955E0,-1.115076187E1,-1.071471863E0,1.132185841E1
1.121252050E1,-5.837860107E-1,-1.381716705E1,-1.401385803E0,1.390031631E1
1.122253850E1,4.098477173E-1,-1.719519241E1,-1.776056671E0,1.729152956E1
1.123255650E1,1.571432190E0,-2.139695480E1,-1.474134521E0,2.150516558E1
1.124257450E1,2.816393280E0,-2.433309906E1,-1.526824951E0,2.454308406E1
1.125259250E1,4.048930206E0,-1.962134720E1,-4.220922546E0,2.047455223E1
1.126261050E1,4.581822052E0,-1.338711136E1,-5.051694946E0,1.502422929E1
1.127262850E1,4.764891357E0,-9.659413147E0,-2.355052643E0,1.102518594E1
1.128264650E1,5.018913116E0,-6.329587555E0,-3.817062378E-1,8.086956605E0
1.129266450E1,4.232598267E0,-4.671784973E0,-1.666933594E0,6.520669485E0
1.130268250E1,3.235372009E0,-4.622238007E0,1.423539734E-1,5.643844513E0
1.131270050E1,2.212399292E0,-4.774172058E0,2.861150208E0,5.989458237E0
1.132271850E1,3.433859253E-1,-5.430706787E0,2.187401276E0,5.864743340E0
1.133273750E1,-6.008505249E-1,-6.484066315E0,2.551593933E0,6.993909416E0
1.134275550E1,-6.075865173E-1,-7.470215607E0,2.958148499E0,8.057538404E0
1.135277350E1,-1.061742096E0,-7.899373169E0,2.560724945E0,8.371660826E0
1.136279150E1,-1.484313354E0,-8.515491943E0,2.577190704E0,9.019905825E0
1.137280950E1,-1.631607056E0,-9.123976593E0,2.051783295E0,9.493097763E0
1.138282750E1,-1.674867096E0,-9.588311005E0,1.661694489E0,9.874315991E0
1.139284550E1,-1.476679230E0,-9.825717316E0,1.470991058E0,1.004435747E1
1.140286350E1,-1.038989410E0,-9.859546967E0,1.096320190E0,9.974571837E0
1.141288150E1,-5.023553467E-1,-9.644893341E0,4.683760071E-1,9.669317687E0
1.142289950E1,-7.334747314E-3,-9.366172943E0,-3.427871704E-1,9.372446449E0
1.143291750E1,3.365002441E-1,-9.105714569E0,-8.390052795E-1,9.150475402E0
1.144293550E1,3.324586487E-1,-9.009764099E0,-7.547305298E-1,9.047430356E0
1.145295350E1,7.484436035E-2,-8.929530945E0,-4.191284180E-1,8.939675229E0
1.146297150E1,-3.847000122E-2,-8.672814789E0,6.436614990E-2,8.673138953E0
1.147299050E1,1.529818726E-1,-8.363557892E0,7.934999084E-1,8.402508326E0
1.148300850E1,3.261717224E-1,-8.101452942E0,1.429826660E0,8.233124075E0
1.149302650E1,5.198689270E-1,-7.839048615E0,2.006876678E0,8.108544930E0
1.150304450E1,8.830137634E-1,-7.565866699E0,2.325264587E0,7.964226743E0
1.151306250E1,1.382974091E0,-7.458689575E0,2.342478790E0,7.939261578E0
1.152308050E1,1.851499786E0,-7.634424133E0,2.087259521E0,8.128292294E0
1.153309850E1,2.393223267E0,-7.996521149E0,1.819466400E0,8.542969394E0
1.154311650E1,3.221301270E0,-8.366701355E0,1.887724457E0,9.161985432E0
1.155313450E1,4.086053009E0,-8.643775177E0,2.107916565E0,9.790505132E0
1.156315250E1,4.743336182E0,-9.022787018E0,1.750908966E0,1.034290123E1
1.157317050E1,5.256469116E0,-9.483828278E0,1.044976959E0,1.089336694E1
1.158318850E1,5.701942749E0,-9.942923584E0,5.858816528E-1,1.147680869E1
1.159320650E1,5.468128967E0,-1.047237259E1,4.902305603E-1,1.182418488E1
1.160322550E1,4.704117737E0,-1.098296082E1,8.836125183E-1,1.198060612E1
1.161324350E1,3.914509735E0,-1.143367355E1,1.369502106E0,1.216255785E1
1.162326150E1,3.419788513E0,-1.162811920E1,1.893861694E0,1.226763310E1
1.163327950E1,3.374133453E0,-1.166838547E1,2.414479065E0,1.238409081E1
1.164329750E1,3.826941833E0,-1.139220978E1,3.221900024E0,1.244220910E1
1.165331550E1,4.276007996E0,-1.095886093E1,3.748355255E0,1.234629679E1
1.166333350E1,4.633314972E0,-1.060349991E1,3.976630554E0,1.223582480E1
1.167335150E1,5.008584595E0,-1.057490936E1,3.931424561E0,1.234385380E1
1.168336950E1,5.042863312E0,-1.132200577E1,3.720064087E0,1.294052402E1
1.169338750E1,4.357887726E0,-1.262729141E1,2.612367554E0,1.361117695E1
1.170340550E1,3.692371674E0,-1.330089066E1,1.078507233E0,1.384595532E1
1.171342350E1,2.308200073E0,-1.368050125E1,-3.863465881E-1,1.387923506E1
1.172344150E1,4.787045288E-1,-1.372989853E1,-1.428180084E0,1.381227606E1
1.173346050E1,-6.222560120E-1,-1.338172256E1,-9.804611206E-1,1.343201420E1
1.174347850E1,-6.472540283E-1,-1.265378632E1,1.534309387E-1,1.267125830E1
1.175349650E1,-1.163081360E-1,-1.123773102E1,1.663790131E0,1.136082407E1
1.176351450E1,8.457412720E-2,-9.773775330E0,2.422412567E0,1.006985202E1
1.177353250E1,-3.109034729E-1,-8.497379608E0,2.355801086E0,8.823373501E0
1.178355050E1,-1.060245209E0,-7.580985260E0,6.105802917E-1,7.679079744E0
1.179356850E1,-6.544390869E-1,-7.066954193E0,-1.109343109E0,7.183367888E0
1.180358650E1,-1.408570862E-1,-6.840774536E0,-1.652563477E0,7.038963206E0
1.181360450E1,-1.303788757E-1,-7.016658783E0,-2.387385406E0,7.412834020E0
1.182362250E1,-3.794609070E-1,-7.861052856E0,-2.594853973E0,8.286942122E0
1.183364050E1,-5.780978394E-1,-9.017547913E0,-2.119891663E0,9.281395807E0
1.184365850E1,-8.146060181E-1,-1.023032593E1,-1.045426025E0,1.031581636E1
1.185367650E1,-8.680448914E-1,-1.143262573E1,-3.933819580E-1,1.147227887E1
1.186369450E1,-8.574169922E-1,-1.265064285E1,-3.293151855E-2,1.267970871E1
1.187371350E1,-1.217568054E0,-1.336630463E1,6.803352356E-1,1.343887746E1
1.188373150E1,-1.961970062E0,-1.333501968E1,1.132095795E0,1.352603850E1
1.189374950E1,-3.050057373E0,-1.228285767E1,1.750010834E0,1.277630543E1
1.190376750E1,-3.439846802E0,-1.084869003E1,2.187850342E0,1.158936196E1
1.191378550E1,-3.402574310E0,-9.574539642E0,2.066901855E0,1.036925285E1
1.192380350E1,-3.342998199E0,-8.728498993E0,1.450034637E0,9.458590386E0
1.193382150E1,-2.763403473E0,-8.398135986E0,1.127006378E0,8.912644399E0
1.194383950E1,-2.141746216E0,-8.288264465E0,8.394543457E-1,8.601574757E0
1.195385750E1,-1.498533783E0,-8.257428589E0,2.993774414E-1,8.397639981E0
1.196387550E1,-8.620573425E-1,-8.434061279E0,9.452842712E-1,8.530538956E0
1.197389350E1,-3.812571716E-1,-8.422235870E0,1.540296936E0,8.570410068E0
1.198391150E1,-7.499404907E-2,-8.457562408E0,7.339237976E-1,8.489677858E0
1.199392950E1,1.437011719E-2,-8.845555573E0,8.875044250E-1,8.889978852E0
1.200394850E1,-1.068777466E-1,-8.877588959E0,7.075785828E-1,8.906384004E0
1.201396650E1,6.631210327E-2,-9.011111298E0,2.890489197E-1,9.015989873E0
1.202398450E1,1.447489929E-1,-9.470955048E0,-7.349716187E-2,9.472346257E0
1.203400250E1,2.080673218E-1,-9.746531982E0,-4.746629333E-1,9.760301358E0
1.204402050E1,2.915936279E-1,-9.961335297E0,-8.190966797E-1,9.999207324E0
1.205403787E1,4.364923096E-1,-1.017658768E1,-1.112636261E0,1.024653218E1
1.206405587E1,7.789801025E-1,-1.030621811E1,-1.111289062E0,1.039518663E1
1.207407387E1,1.130449219E0,-1.035022659E1,-9.620494080E-1,1.045612954E1
1.208409188E1,1.163680115E0,-1.018571869E1,-7.161108398E-1,1.027695633E1
1.209410987E1,1.179098053E0,-9.812993774E0,-3.483256531E-1,9.889714343E0
1.210412787E1,1.157842255E0,-9.353748779E0,1.675016785E-1,9.426625681E0
1.211414587E1,1.052910461E0,-8.894803162E0,5.276527405E-1,8.972433401E0
1.212416388E1,9.315129089E-1,-8.572523346E0,7.180567932E-1,8.652830657E0
1.213418287E1,7.673043823E-1,-8.400531006E0,7.301815796E-1,8.467044486E0
1.214420087E1,6.204597473E-1,-8.310717773E0,5.894741821E-1,8.354668157E0
1.215421887E1,5.054988098E-1,-8.478967896E0,4.444258118E-1,8.505641653E0
1.216423688E1,4.156855774E-1,-8.755592651E0,3.279679871E-1,8.771588236E0
1.217425487E1,3.731739807E-1,-9.094936981E0,2.245330811E-1,9.105358456E0
1.218427287E1,3.056643677E-1,-9.301657104E0,1.972897339E-1,9.308768922E0
1.219429087E1,2.427951050E-1,-9.395811310E0,3.423381042E-1,9.405180222E0
1.220430888E1,2.218386841E-1,-9.429191895E0,6.430627441E-1,9.453697789E0
1.221432687E1,2.092648315E-1,-9.339378662E0,9.397457886E-1,9.388871482E0
1.222434487E1,1.736389160E-1,-9.125323792E0,1.326092377E0,9.222808995E0
1.223436287E1,-2.544708252E-3,-8.829389191E0,1.772015076E0,9.005451537E0
1.224438087E1,-2.791694641E-1,-8.416398010E0,1.963466949E0,8.646900804E0
1.225439887E1,-4.873864746E-1,-7.932154999E0,1.929038544E0,8.177885925E0
1.226441787E1,-5.724096680E-1,-7.676935730E0,1.855691071E0,7.918748915E0
1.227443588E1,-7.915539551E-1,-7.663912811E0,1.916764069E0,7.939527803E0
1.228445387E1,-9.770182800E-1,-7.669002228E0,1.767674103E0,7.930500087E0
1.229447187E1,-9.042695618E-1,-8.053103485E0,1.546883240E0,8.250031936E0
1.230448987E1,-5.008584595E-1,-8.704548798E0,1.570534058E0,8.859266685E0
1.231450788E1,-2.002835083E-1,-9.546547852E0,1.714235229E0,9.701303613E0
1.232452587E1,-2.255809021E-1,-1.031340317E1,1.704056396E0,1.045566736E1
1.233454387E1,-2.963836670E-1,-1.108879074E1,1.694925385E0,1.122149257E1
1.234456187E1,-2.155517578E-1,-1.189845703E1,1.823957062E0,1.203937547E1
1.235457988E1,-3.817062378E-2,-1.271515869E1,2.100881195E0,1.288760720E1
1.236459787E1,1.426533508E-1,-1.332304459E1,2.194436646E0,1.350331142E1
1.237461587E1,4.715194702E-1,-1.364352814E1,1.942809906E0,1.378922409E1
1.238463387E1,8.539741516E-1,-1.374756180E1,1.429676971E0,1.384805775E1
1.239465288E1,1.064586182E0,-1.340222992E1,7.858657837E-1,1.346739379E1
1.240467087E1,1.267863464E0,-1.253193970E1,1.113684082E-1,1.259640398E1
1.241468887E1,1.483265533E0,-1.150896698E1,-2.983296204E-1,1.160798855E1
1.242470687E1,1.531465302E0,-1.040127045E1,-4.372407532E-1,1.052249934E1
1.243472487E1,1.236428833E0,-9.261241150E0,-3.999682617E-1,9.351968697E0
1.244474287E1,5.569917297E-1,-8.157586212E0,-3.781137085E-1,8.185317500E0
1.245476087E1,-3.367996216E-1,-7.351961517E0,-4.085005188E-1,7.371000259E0
1.246477888E1,-1.122515717E0,-6.817722473E0,-6.941065979E-1,6.944290117E0
1.247479687E1,-1.575174408E0,-6.385271759E0,-8.047265625E-1,6.625741822E0
1.248481487E1,-1.813927917E0,-5.973478088E0,-9.913883972E-1,6.321046268E0
1.249483287E1,-1.959724731E0,-5.793552246E0,-1.195264435E0,6.231727346E0
1.250485088E1,-2.137405243E0,-6.091732178E0,-1.239272919E0,6.573697549E0
1.251486887E1,-2.506387939E0,-6.663393402E0,-1.186732178E0,7.217418195E0
1.252488687E1,-2.615810394E0,-7.825127563E0,-1.156644745E0,8.331441200E0
1.253490587E1,-2.565065918E0,-9.500144348E0,-1.810634766E0,1.000553367E1
1.254492388E1,-1.844913483E0,-1.200264038E1,-1.665436707E0,1.225727381E1
1.255494187E1,-8.611592102E-1,-1.480196915E1,-1.567540283E0,1.490963005E1
1.256495987E1,3.652404785E-1,-1.796279617E1,-2.261796570E0,1.810831772E1
1.257497787E1,2.094145203E0,-2.196502350E1,-1.368903351E0,2.210704860E1
1.258499588E1,3.830534363E0,-2.363180740E1,-1.937271423E0,2.401849985E1
1.259501387E1,5.046306152E0,-1.829390762E1,-4.955445099E0,1.961348256E1
1.260503187E1,5.339546356E0,-1.278551239E1,-5.065615997E0,1.475264545E1
1.261504987E1,5.148244171E0,-9.407636719E0,-3.036435699E0,1.114576101E1
1.262506788E1,5.393284607E0,-6.529571686E0,-1.721869354E0,8.642202227E0
1.263508587E1,5.405110016E0,-4.274660797E0,2.287243652E-1,6.894944093E0
1.264510387E1,4.376898193E0,-4.473597107E0,3.450325012E-1,6.268122231E0
1.265512288E1,2.365979919E0,-5.370681610E0,9.089099121E-1,5.938703492E0
1.266514087E1,8.430468750E-1,-6.028413849E0,1.631457367E0,6.301916749E0
1.267515887E1,5.361849976E-1,-7.371421051E0,2.145787811E0,7.696086538E0
1.268517687E1,4.490661621E-4,-8.098159790E0,1.817520447E0,8.299612808E0
1.269519488E1,-6.150709534E-1,-8.873397675E0,2.076182556E0,9.133785227E0
1.270521287E1,-1.047970734E0,-9.374256134E0,2.067799988E0,9.656641109E0
1.271523087E1,-1.226998444E0,-9.766290894E0,1.613794098E0,9.974482161E0
1.272524887E1,-1.306483154E0,-9.944719849E0,1.124761047E0,1.009303911E1
1.273526688E1,-1.041833496E0,-9.971663818E0,9.434880066E-1,1.007023664E1
1.274528487E1,-4.348457336E-1,-9.679022369E0,6.325845337E-1,9.709414402E0
1.275530287E1,1.378633118E-1,-9.210945740E0,3.047662354E-1,9.217017423E0
1.276532087E1,5.295986938E-1,-8.804241486E0,-5.239105225E-3,8.820157049E0
1.277533888E1,6.933581543E-1,-8.602012024E0,-2.303709412E-1,8.632984835E0
1.278535687E1,4.800517273E-1,-8.587941284E0,-3.996688843E-2,8.601440723E0
1.279537587E1,9.280700684E-2,-8.598868561E0,2.917433167E-1,8.604316814E0
1.280539387E1,-6.242019653E-2,-8.460556183E0,8.291258240E-1,8.501315006E0
1.281541187E1,-2.649490356E-2,-8.245902557E0,1.327289886E0,8.352084136E0
1.282542987E1,1.718426514E-1,-7.987539825E0,1.772913208E0,8.183736531E0
1.283544787E1,4.040098572E-1,-7.824229431E0,2.123484192E0,8.117325623E0
1.284546587E1,7.511380005E-1,-7.723488922E0,2.420316925E0,8.128617560E0
1.285548387E1,1.179247742E0,-7.733518066E0,2.413431244E0,8.186731783E0
1.286550187E1,1.660047913E0,-7.710466003E0,2.257156219E0,8.203767382E0
1.287551987E1,2.204166412E0,-7.776478729E0,1.984273682E0,8.322818816E0
1.288553788E1,2.870879974E0,-7.928861847E0,1.672322388E0,8.596828728E0
1.289555587E1,3.731440430E0,-8.140372009E0,1.653760986E0,9.106274185E0
1.290557387E1,4.477189636E0,-8.514444122E0,1.486259308E0,9.733958726E0
1.291559187E1,5.065765686E0,-9.102421417E0,1.256487122E0,1.049260776E1
1.292561088E1,5.669460297E0,-9.627379761E0,1.013392639E0,1.121856434E1
1.293562887E1,6.134094086E0,-1.016221756E1,8.408015442E-1,1.189977828E1
1.294564687E1,5.766458588E0,-1.060170364E1,6.908134460E-1,1.208823345E1
1.295566487E1,4.739593964E0,-1.086620361E1,5.499563599E-1,1.186762756E1
1.296568288E1,4.018244019E0,-1.096484848E1,6.583309937E-1,1.169647754E1
1.297570087E1,3.742966461E0,-1.091619965E1,1.282233582E0,1.161108675E1
1.298571887E1,3.987857208E0,-1.071890991E1,2.279759216E0,1.166170386E1
1.299573687E1,4.351750488E0,-1.052221893E1,3.112477570E0,1.180433565E1
1.300575488E1,4.641847229E0,-1.031115784E1,3.739673309E0,1.191015861E1
1.301577287E1,5.088668060E0,-1.000294876E1,4.077520752E0,1.194067427E1
1.302579087E1,5.687572632E0,-9.953401794E0,3.995790710E0,1.214022377E1
1.303580887E1,6.076164551E0,-1.054018158E1,3.728895721E0,1.272477374E1
1.304582688E1,5.450914764E0,-1.207688599E1,2.667153625E0,1.351581871E1
1.305584629E1,4.509672089E0,-1.324071579E1,1.166075134E0,1.403614720E1
1.306586429E1,3.196303253E0,-1.372795258E1,1.661544800E-2,1.409515209E1
1.307588229E1,1.293460236E0,-1.369023102E1,-7.848179626E-1,1.377357629E1
1.308590029E1,-2.842588806E-1,-1.341869568E1,-4.146377563E-1,1.342810937E1
1.309591829E1,-6.224057007E-1,-1.298639465E1,1.178499298E0,1.305460438E1
1.310593629E1,-2.140548706E-2,-1.187854843E1,2.273023224E0,1.209408970E1
1.311595429E1,2.782713318E-1,-1.057670563E1,2.147434387E0,1.079609241E1
1.312597229E1,5.279521179E-1,-9.308692474E0,2.339035950E0,9.612573963E0
1.313599029E1,4.309538269E-1,-8.365054779E0,2.012714539E0,8.614573842E0
1.314600829E1,-1.616638184E-2,-7.600295105E0,4.751119995E-1,7.615147960E0
1.315602629E1,1.356179810E-1,-6.959926758E0,-6.295907593E-1,6.989660738E0
1.316604429E1,-3.023712158E-2,-6.799310760E0,-1.487606506E0,6.960209352E0
1.317606229E1,-2.731819153E-1,-6.991361389E0,-2.218237152E0,7.339914066E0
1.318608129E1,-4.899311829E-1,-7.743247833E0,-2.676883392E0,8.207534603E0
1.319609929E1,-6.489006042E-1,-9.073531494E0,-2.649939423E0,9.474820564E0
1.320611729E1,-8.714877319E-1,-1.038794815E1,-1.747915192E0,1.056996524E1
1.321613529E1,-9.045689392E-1,-1.181942139E1,-8.087681580E-1,1.188154337E1
1.322615329E1,-9.933343506E-1,-1.310794189E1,-4.207749939E-1,1.315225857E1
1.323617129E1,-1.926194458E0,-1.392629013E1,-1.541793823E-1,1.405971384E1
1.324618929E1,-2.881807251E0,-1.366074234E1,3.011737061E-1,1.396464822E1
1.325620729E1,-3.750301208E0,-1.270857239E1,1.109492798E0,1.329674944E1
1.326622529E1,-4.066443787E0,-1.147798141E1,1.640887756E0,1.228708814E1
1.327624329E1,-3.691922607E0,-1.050380722E1,1.452579346E0,1.122810070E1
1.328626129E1,-2.930605774E0,-9.931996307E0,1.543440399E0,1.046972823E1
1.329627929E1,-2.139500885E0,-9.195078735E0,2.112257538E0,9.674118507E0
1.330629829E1,-1.129700775E0,-8.534652100E0,2.186353455E0,8.882378720E0
1.331631629E1,-4.617897034E-1,-8.696764984E0,2.191143494E0,8.980427647E0
1.332633429E1,5.807922363E-2,-8.391250305E0,1.813778229E0,8.585234204E0
1.333635229E1,4.808001709E-1,-7.958500214E0,1.363813934E0,8.088812206E0
1.334637029E1,4.634362793E-1,-7.767647095E0,1.073268127E0,7.855126927E0
1.335638829E1,3.733236694E-1,-7.801626434E0,1.126707001E0,7.891401285E0
1.336640629E1,2.872526550E-1,-8.100255432E0,1.062939606E0,8.174747260E0
1.337642429E1,1.936972046E-1,-8.443791046E0,5.754034424E-1,8.465590054E0
1.338644229E1,1.474433899E-1,-8.851842499E0,2.649490356E-2,8.853110027E0
1.339646029E1,2.353106689E-1,-9.319769440E0,-3.867956543E-1,9.330760119E0
1.340647829E1,3.429368591E-1,-9.772727509E0,-6.906637573E-1,9.803102829E0
1.341649629E1,4.236190796E-1,-1.020278320E1,-9.788145447E-1,1.025837785E1
1.342651429E1,7.816744995E-1,-1.050096313E1,-9.596543884E-1,1.057365492E1
1.343653329E1,1.081800385E0,-1.066861450E1,-6.764433289E-1,1.074463601E1
1.344655129E1,1.151255951E0,-1.045381119E1,-3.237767029E-1,1.052199553E1
1.345656929E1,1.179547119E0,-1.003378464E1,-4.909790039E-2,1.010299837E1
1.346658729E1,1.259780273E0,-9.521699524E0,2.451901245E-1,9.607805491E0
1.347660529E1,1.354832611E0,-9.047785034E0,5.023553467E-1,9.162442159E0
1.348662329E1,1.308429108E0,-8.721463623E0,5.709127808E-1,8.837525438E0
1.349664129E1,1.236728210E0,-8.565637665E0,5.258564758E-1,8.670419269E0
1.350665929E1,1.183588715E0,-8.523126068E0,4.439767456E-1,8.616360924E0
1.351667729E1,1.229393463E0,-8.475674744E0,1.152603149E-1,8.565147727E0
1.352669529E1,1.221160583E0,-8.498876495E0,2.062710571E-1,8.588636830E0
1.353671329E1,1.142723694E0,-8.710536346E0,3.670367432E-1,8.792836678E0
1.354673129E1,1.012943573E0,-8.965156860E0,5.870791626E-1,9.041280560E0
1.355674929E1,8.054750061E-1,-9.125174103E0,8.568182373E-1,9.200637472E0
1.356676729E1,6.141728210E-1,-9.121731262E0,1.025517426E0,9.199721488E0
1.357678629E1,4.261637878E-1,-9.119485931E0,1.026565247E0,9.186973138E0
1.358680429E1,1.924996948E-1,-9.046437836E0,1.047970734E0,9.108970101E0
1.359682229E1,-1.893562317E-1,-8.894653473E0,1.130299530E0,8.968182269E0
1.360684029E1,-5.734574890E-1,-8.407716064E0,1.216819611E0,8.514645787E0
1.361685829E1,-1.225202179E0,-7.916437683E0,1.122366028E0,8.088931417E0
1.362687629E1,-1.715732117E0,-7.430248718E0,9.551637268E-1,7.685354283E0
1.363689429E1,-2.177970886E0,-7.380701752E0,1.032702484E0,7.764328042E0
1.364691229E1,-2.466121674E0,-7.649542694E0,1.051712952E0,8.105760894E0
1.365693029E1,-2.583178253E0,-8.249345398E0,1.110540619E0,8.715377780E0
1.366694829E1,-2.207010498E0,-8.992998962E0,1.496138763E0,9.379944396E0
1.367696629E1,-1.619182892E0,-9.813592529E0,1.891616364E0,1.012455254E1
1.368698429E1,-1.321452026E0,-1.054093002E1,2.338437195E0,1.087776308E1
1.369700329E1,-9.267228699E-1,-1.128518234E1,2.774630127E0,1.165816144E1
1.370702129E1,-3.200344849E-1,-1.211730194E1,3.212469635E0,1.253999161E1
1.371703929E1,4.595443726E-1,-1.289074356E1,3.320694580E0,1.331951437E1
1.372705729E1,1.374441833E0,-1.350551514E1,3.084485779E0,1.392128162E1
1.373707529E1,2.211052094E0,-1.368663849E1,2.587219849E0,1.410342267E1
1.374709329E1,2.729723511E0,-1.340058334E1,1.944456482E0,1.381332456E1
1.375711129E1,2.884351959E0,-1.281125885E1,1.290915527E0,1.319523787E1
1.376712929E1,2.795436859E0,-1.208257416E1,6.415658569E-1,1.241832003E1
1.377714729E1,2.763253784E0,-1.111438751E1,-4.505630493E-2,1.145282547E1
1.378716529E1,2.716999969E0,-1.007824219E1,-3.887416077E-1,1.044529437E1
1.379718329E1,2.494712219E0,-9.034762115E0,-6.047424316E-1,9.392349490E0
1.380720129E1,1.829794922E0,-8.056097260E0,-6.194119263E-1,8.284474856E0
1.381721929E1,8.590635681E-1,-7.234755249E0,-7.014413452E-1,7.319268658E0
1.382723829E1,6.212081909E-2,-6.618935852E0,-8.276289368E-1,6.670767607E0
1.383725629E1,-5.620811462E-1,-6.208040314E0,-8.744815063E-1,6.294475169E0
1.384727429E1,-1.175355835E0,-5.981411591E0,-9.092092896E-1,6.163230280E0
1.385729229E1,-1.919159088E0,-6.255791016E0,-8.092172241E-1,6.593400136E0
1.386731029E1,-2.754122772E0,-6.932384033E0,-7.210505676E-1,7.494201395E0
1.387732829E1,-3.214415588E0,-8.170609131E0,-1.270258484E0,8.871576960E0
1.388734629E1,-3.617976379E0,-9.681267700E0,-2.476150818E0,1.062770061E1
1.389736429E1,-2.918031921E0,-1.142050095E1,-2.210752716E0,1.199292207E1
1.390738229E1,-1.720372467E0,-1.363993561E1,-2.290836182E0,1.393755557E1
1.391740029E1,-4.788542175E-1,-1.656350601E1,-2.524350586E0,1.676160430E1
1.392741829E1,1.070424042E0,-2.070090225E1,-1.505120087E0,2.078313134E1
1.393743629E1,2.563569031E0,-2.435570206E1,-1.544637909E0,2.453890819E1
1.394745429E1,4.265230408E0,-2.148302582E1,-3.118764496E0,2.212327464E1
1.395747329E1,5.321434021E0,-1.437490723E1,-4.395010529E0,1.594590027E1
1.396749129E1,5.001399536E0,-1.028825546E1,-4.401297455E0,1.225698238E1
1.397750929E1,4.874313812E0,-7.436835022E0,-2.466421051E0,9.227604407E0
1.398752729E1,5.400020599E0,-4.890480194E0,-1.159039764E0,7.377017838E0
1.399754529E1,4.972359924E0,-3.442840576E0,1.335073700E0,6.193539879E0
1.400756329E1,3.297941895E0,-4.200714569E0,8.759783936E-1,5.412001642E0
1.401758129E1,1.111139374E0,-4.953349457E0,1.351090393E0,5.253165408E0
1.402759929E1,2.163002014E-1,-5.695805511E0,2.513123932E0,6.229348128E0
1.403761729E1,-1.049317932E-1,-6.720275116E0,2.326312408E0,7.112301859E0
1.404763529E1,-6.369255066E-1,-7.451055450E0,1.975591736E0,7.734782746E0
1.405765329E1,-1.005908203E0,-8.045619049E0,1.714534607E0,8.287548860E0
1.406767129E1,-1.089284821E0,-8.731792145E0,1.641486511E0,8.951268818E0
1.407768929E1,-1.075513458E0,-9.173373871E0,9.059161377E-1,9.280528079E0
1.408770829E1,-9.086105347E-1,-9.611063690E0,5.825885010E-1,9.671480121E0
1.409772629E1,-6.125262451E-1,-9.959838409E0,4.204756165E-1,9.987510665E0
1.410774429E1,-4.152365112E-1,-1.018107834E1,1.995350647E-1,1.019149605E1
1.411776229E1,-2.538720703E-1,-1.005893234E1,-3.939807129E-1,1.006984566E1
1.412778029E1,1.236428833E-1,-9.750124512E0,-7.116201782E-1,9.776840944E0
1.413779829E1,3.498225403E-1,-9.517807617E0,-3.873944092E-1,9.532109529E0
1.414781629E1,1.945953369E-1,-9.450447693E0,-3.143463135E-2,9.452503218E0
1.415783429E1,-1.047821045E-2,-9.310039673E0,4.125421143E-1,9.319181268E0
1.416785229E1,-4.655319214E-2,-8.925189972E0,1.038540344E0,8.985529994E0
1.417787029E1,7.873626709E-2,-8.432714081E0,1.661844177E0,8.595265687E0
1.418788829E1,2.749781799E-1,-8.000113678E0,2.123334503E0,8.281665368E0
1.419790629E1,5.966592407E-1,-7.657176819E0,2.395318909E0,8.045241560E0
1.420792529E1,9.886940002E-1,-7.460934906E0,2.456391907E0,7.916876069E0
1.421794329E1,1.531914368E0,-7.341782684E0,2.397863617E0,7.873898941E0
1.422796129E1,2.203867035E0,-7.145690460E0,2.237696686E0,7.805460173E0
1.423797929E1,2.915187836E0,-7.123536530E0,2.240091705E0,8.016302368E0
1.424799729E1,3.696263580E0,-7.284751282E0,2.040406952E0,8.419811531E0
1.425801529E1,4.684209137E0,-7.563471680E0,1.822609863E0,9.081289875E0
1.426803329E1,5.617218933E0,-7.904013519E0,1.346599731E0,9.789785957E0
1.427805129E1,6.377937012E0,-8.395291901E0,1.153501282E0,1.060611012E1
1.428806929E1,6.345005493E0,-9.356742554E0,1.061891785E0,1.135496984E1
1.429808729E1,5.705535278E0,-1.049078430E1,1.292262726E0,1.201164564E1
1.430810529E1,4.918322296E0,-1.168470154E1,1.606908417E0,1.277905704E1
1.431812329E1,4.147126007E0,-1.264480499E1,1.767075348E0,1.342431759E1
1.432814129E1,3.620670776E0,-1.312994614E1,2.073637848E0,1.377696325E1
1.433816029E1,3.795507202E0,-1.291738815E1,2.847977600E0,1.376138685E1
1.434817829E1,4.365970917E0,-1.205113953E1,3.721411285E0,1.334693103E1
1.435819629E1,4.942571869E0,-1.120180573E1,4.020339661E0,1.288691581E1
1.436821429E1,5.422473907E0,-1.102008362E1,4.274810486E0,1.300459422E1
1.437823229E1,5.257966003E0,-1.211685287E1,3.690575409E0,1.371439670E1
1.438825029E1,4.489763489E0,-1.315763855E1,1.690285034E0,1.400494527E1
1.439826829E1,2.992427216E0,-1.374157425E1,3.523672485E-1,1.406803633E1
1.440828629E1,8.912466431E-1,-1.385129608E1,-1.098715210E0,1.392335803E1
1.441830429E1,-9.237290955E-1,-1.392718826E1,-1.605561218E0,1.404982830E1
1.442832229E1,-1.877994690E0,-1.375160339E1,-4.677772522E-1,1.388712625E1
1.443834029E1,-1.926942902E0,-1.239228012E1,1.671424255E0,1.265208973E1
1.444835829E1,-1.389410706E0,-1.038225998E1,2.742896118E0,1.082798520E1
1.445837729E1,-1.446591797E0,-8.391399994E0,2.145488434E0,8.781306412E0
1.446839529E1,-1.543440399E0,-7.620952148E0,2.058219910E-1,7.778398460E0
1.447841329E1,-5.821394348E-1,-7.325765991E0,-9.913883972E-1,7.415428823E0
1.448843129E1,1.311273193E-1,-7.162156219E0,-1.888023834E0,7.407989612E0
1.449844929E1,2.528242493E-1,-7.710316315E0,-2.614612885E0,8.145495584E0
1.450846729E1,2.890489197E-1,-8.639733582E0,-2.784958649E0,9.082099995E0
1.451848529E1,3.755690002E-1,-9.754166107E0,-2.385289764E0,1.004860268E1
1.452850329E1,1.523831177E-1,-1.130074997E1,-1.485959930E0,1.139904590E1
1.453852129E1,-2.905458069E-1,-1.265902542E1,-6.279441833E-1,1.267791999E1
1.454853929E1,-9.907896423E-1,-1.339414673E1,-3.228785706E-1,1.343462248E1
1.455855729E1,-2.064955902E0,-1.359517868E1,2.371069336E-1,1.375315040E1
1.456857529E1,-3.169958038E0,-1.280407379E1,1.195713501E0,1.324472236E1
1.457859329E1,-4.191134491E0,-1.156345367E1,1.467099152E0,1.238674490E1
1.458861229E1,-5.096002808E0,-1.029259644E1,2.125879211E0,1.168016046E1
1.459863029E1,-4.901856537E0,-9.047485657E0,2.061962128E0,1.049461205E1
1.460864829E1,-3.905229034E0,-8.141569519E0,1.566043396E0,9.164521808E0
1.461866629E1,-2.624492340E0,-7.482490082E0,1.531465302E0,8.075952194E0
1.462868429E1,-1.531016235E0,-7.281158752E0,1.300645294E0,7.553208700E0
1.463870229E1,-7.800279236E-1,-7.282805328E0,9.156459045E-1,7.381470344E0
1.464872029E1,-1.881587219E-1,-7.490872650E0,1.106199646E0,7.574447466E0
1.465873829E1,3.700305176E-1,-7.798932037E0,1.451681213E0,7.941513826E0
1.466875629E1,3.126997375E-1,-7.952812042E0,2.087708588E0,8.228215338E0
1.467877429E1,2.733316040E-1,-7.605534210E0,1.209484863E0,7.705953181E0
1.468879229E1,4.643344116E-1,-7.790998535E0,7.997868347E-1,7.845694590E0
1.469881029E1,5.400769043E-1,-8.197104034E0,5.646258545E-1,8.234257706E0
1.470882829E1,5.825885010E-1,-8.744515686E0,2.237846375E-1,8.766757868E0
1.471884729E1,6.262976074E-1,-9.428293762E0,-2.776725769E-1,9.453151539E0
1.472886529E1,7.460485840E-1,-1.016266663E1,-5.677693176E-1,1.020581910E1
1.473888329E1,9.253756714E-1,-1.070873108E1,-7.520361328E-1,1.077491530E1
1.474890129E1,1.201701050E0,-1.102158051E1,-7.005432129E-1,1.110900909E1
1.475891929E1,1.458566895E0,-1.112037506E1,-3.906875610E-1,1.122242379E1
1.476893729E1,1.622176666E0,-1.099343903E1,-1.176553345E-1,1.111310045E1
1.477895529E1,1.793270874E0,-1.056967026E1,1.260379028E-1,1.072145677E1
1.478897329E1,1.898651733E0,-1.004037094E1,4.605921936E-1,1.022868868E1
1.479899129E1,1.939516754E0,-9.552535400E0,6.328839111E-1,9.767968052E0
1.480900929E1,1.904639282E0,-9.082063751E0,7.068301392E-1,9.306510711E0
1.481902729E1,1.702260132E0,-8.798852692E0,6.191125488E-1,8.983362321E0
1.482904529E1,1.472787323E0,-8.658444672E0,2.438429260E-1,8.786195195E0
1.483906329E1,1.195264435E0,-8.606951752E0,1.052311707E-1,8.690186944E0
1.484908229E1,9.114546204E-1,-8.640482025E0,-3.113525391E-2,8.688477919E0
1.485910029E1,6.813830566E-1,-8.723708954E0,-8.472381592E-2,8.750689053E0
1.486911829E1,5.926176453E-1,-8.656648407E0,3.876937866E-2,8.676996046E0
1.487913629E1,4.831951904E-1,-8.601413269E0,3.243754578E-1,8.621079240E0
1.488915429E1,3.282673645E-1,-8.554860077E0,7.207511902E-1,8.591441828E0
1.489917229E1,2.321672058E-1,-8.547225952E0,1.200204163E0,8.634203097E0
1.490919029E1,8.187973022E-2,-8.510103149E0,1.618584137E0,8.663046491E0
1.491920829E1,-1.535806274E-1,-8.285570068E0,1.945504303E0,8.512299652E0
1.492922629E1,-4.611909485E-1,-7.823031921E0,1.961221619E0,8.078299064E0
1.493924429E1,-8.360115051E-1,-7.272626495E0,1.707499237E0,7.517018360E0
1.494926229E1,-1.270108795E0,-6.984775085E0,1.556313629E0,7.267900072E0
1.495928029E1,-1.624122620E0,-7.095395050E0,1.279239807E0,7.390457339E0
1.496929929E1,-1.617835693E0,-7.732919312E0,1.085243225E0,7.974533608E0
1.497931729E1,-1.052611084E0,-8.721313934E0,1.077609100E0,8.850454689E0
1.498933529E1,-2.344125366E-1,-1.016102005E1,1.193767548E0,1.023358972E1
1.499935329E1,3.852987671E-1,-1.170850204E1,1.411564636E0,1.179957584E1
1.500937129E1,7.976911926E-1,-1.301498520E1,1.933229828E0,1.318193948E1
1.501938929E1,1.184786224E0,-1.385803207E1,2.666704559E0,1.416192376E1
1.502940729E1,1.688039703E0,-1.407059006E1,3.330124969E0,1.455749686E1
1.503942529E1,2.044298859E0,-1.359517868E1,3.371738434E0,1.415544635E1
1.504944329E1,2.517315216E0,-1.282996994E1,2.869233398E0,1.338572018E1
1.505946050E1,3.007545776E0,-1.193138855E1,2.426454163E0,1.254157263E1
1.506947850E1,3.139720917E0,-1.078851517E1,1.981130219E0,1.140941646E1
1.507949650E1,2.830314331E0,-9.797126770E0,1.664388885E0,1.033269387E1
1.508951450E1,2.118993530E0,-8.919501801E0,1.140777740E0,9.238453323E0
1.509953350E1,1.214873657E0,-7.946525116E0,3.384461975E-1,8.045975718E0
1.510955150E1,1.700463867E-1,-6.990912323E0,-3.312611389E-1,7.000821725E0
1.511956950E1,-5.834866333E-1,-6.142326965E0,-8.689430237E-1,6.230866647E0
1.512958750E1,-1.007704468E0,-5.429209900E0,-1.284179535E0,5.669294975E0
1.513960550E1,-1.337019653E0,-4.858596497E0,-1.548380127E0,5.271722915E0
1.514962350E1,-1.984722748E0,-4.552782440E0,-1.565145264E0,5.207363251E0
1.515964150E1,-2.714006195E0,-4.767885132E0,-1.405277710E0,5.663335033E0
1.516965950E1,-3.701652374E0,-5.661227417E0,-1.229094086E0,6.874765337E0
1.517967750E1,-4.681215363E0,-8.214467926E0,-6.908134460E-1,9.479898934E0
1.518969550E1,-5.175487518E0,-1.218600906E1,-3.153941345E-1,1.324326098E1
1.519971350E1,-4.563859406E0,-1.595861389E1,-4.508624268E-1,1.660450080E1
1.520973150E1,-3.413800964E0,-1.931164124E1,-2.014211426E0,1.971422258E1
1.521975050E1,-1.382824402E0,-2.347179016E1,-2.372865601E0,2.363191968E1
1.522976850E1,1.015188904E0,-2.991499146E1,-2.688708801E0,3.005272828E1
1.523978650E1,5.315745850E0,-3.031391190E1,-4.090393982E0,3.104708893E1
1.524980450E1,8.701255646E0,-1.990620483E1,-6.890471191E0,2.279138947E1
1.525982250E1,9.156608734E0,-1.259855118E1,-4.671635284E0,1.626010921E1
1.526984050E1,1.036624329E1,-8.441396027E0,-2.741249542E0,1.364663386E1
1.527985850E1,1.031939072E1,-4.633764038E0,-3.839216309E0,1.194575974E1
1.528987650E1,9.558972015E0,-2.471809845E0,-1.409169617E0,9.973442180E0
1.529989450E1,6.403084717E0,-3.453019409E0,2.230361938E-2,7.274842568E0
1.530991250E1,3.951632538E0,-4.758903809E0,2.188449097E-1,6.189544270E0
1.531993050E1,2.778671722E0,-5.701343994E0,1.526675262E0,6.523578561E0
1.532994850E1,1.901645508E0,-6.064788208E0,3.536096649E0,7.273368625E0
1.533996650E1,4.198768616E-1,-6.753056946E0,4.823569336E0,8.309446181E0
1.534998550E1,-1.464404755E0,-7.644004211E0,4.192481689E0,8.840372412E0
1.536000350E1,-2.476899261E0,-8.064928894E0,3.464096375E0,9.120201298E0
1.537002150E1,-2.656376038E0,-8.261170807E0,2.792143707E0,9.115884117E0
1.538003950E1,-2.573298798E0,-8.365054779E0,2.457888794E0,9.090501938E0
1.539005750E1,-2.555934906E0,-8.623866577E0,2.145488434E0,9.246999438E0
1.540007550E1,-2.579136658E0,-9.088949432E0,1.438957672E0,9.556753992E0
1.541009350E1,-2.417472839E0,-9.298064575E0,6.762936401E-1,9.630968428E0
1.542011150E1,-2.198777618E0,-9.187594299E0,-6.975494385E-2,9.447294733E0
1.543012950E1,-1.971550140E0,-8.886719971E0,-4.014651489E-1,9.111639592E0
1.544014750E1,-1.831591187E0,-8.614136810E0,-2.957849121E-1,8.811672258E0
1.545016550E1,-1.914518738E0,-8.285869446E0,1.407073975E-2,8.504187936E0
1.546018350E1,-1.669627991E0,-7.868387604E0,5.906716919E-1,8.065238630E0
1.547020150E1,-1.278940430E0,-7.579188995E0,1.085692291E0,7.762636292E0
1.548022050E1,-8.011340332E-1,-7.446265411E0,1.635648651E0,7.665770074E0
1.549023850E1,-2.486329651E-1,-7.390431519E0,2.114203491E0,7.690913651E0
1.550025650E1,3.796105957E-1,-7.274273071E0,2.571053467E0,7.724601533E0
1.551027450E1,9.062155151E-1,-7.392227783E0,2.403102722E0,7.825673188E0
1.552029250E1,1.375489655E0,-7.441175995E0,2.339934082E0,7.920755234E0
1.553031050E1,1.970951385E0,-7.565567322E0,2.449955292E0,8.192968888E0
1.554032850E1,2.880460052E0,-7.817343750E0,2.612217865E0,8.731070701E0
1.555034650E1,3.849544830E0,-8.373437347E0,2.435884552E0,9.532417425E0
1.556036450E1,4.884941711E0,-8.840915222E0,2.170486450E0,1.033128496E1
1.557038250E1,5.858068085E0,-9.376351776E0,1.497186584E0,1.115681415E1
1.558040050E1,6.586154022E0,-1.018137772E1,3.436853027E-1,1.213078714E1
1.559041850E1,6.439459076E0,-1.141780655E1,-1.853146362E-1,1.310981621E1
1.560043750E1,5.463937683E0,-1.258028915E1,3.251239014E-1,1.371947505E1
1.561045550E1,4.437671814E0,-1.297726364E1,1.272204437E0,1.377391763E1
1.562047350E1,3.945944366E0,-1.278281799E1,2.264640656E0,1.356832746E1
1.563049150E1,4.397555237E0,-1.243943207E1,3.359014893E0,1.361473258E1
1.564050950E1,4.984484711E0,-1.197659454E1,4.352947998E0,1.368327669E1
1.565052750E1,5.526806946E0,-1.123967697E1,5.025200043E0,1.349550180E1
1.566054550E1,6.345005493E0,-1.026086243E1,5.539979553E0,1.327538195E1
1.567056350E1,7.007078705E0,-9.710007935E0,5.555397491E0,1.320022149E1
1.568058150E1,6.485862579E0,-1.035576508E1,4.952002258E0,1.318448369E1
1.569059950E1,5.229974213E0,-1.159728333E1,2.454595642E0,1.295664503E1
1.570061750E1,3.637585602E0,-1.284104691E1,5.358856201E-2,1.334643722E1
1.571063550E1,8.825646973E-1,-1.360266312E1,-1.846560059E0,1.375576782E1
1.572065450E1,-1.506467285E0,-1.387644379E1,-2.312241669E0,1.414820121E1
1.573067250E1,-2.627935181E0,-1.400652328E1,-1.224753113E0,1.430345266E1
1.574069050E1,-2.786904602E0,-1.353186035E1,-2.348616028E-1,1.381785952E1
1.575070850E1,-2.080373840E0,-1.228001358E1,7.589218140E-1,1.247808684E1
1.576072650E1,-1.078207855E0,-1.031519943E1,1.390608215E-1,1.037232903E1
1.577074450E1,-9.216334534E-1,-8.273145905E0,-1.591191101E-1,8.325843517E0
1.578076250E1,-1.054557037E0,-7.389084320E0,-1.071621552E0,7.540492715E0
1.579078050E1,-7.334747314E-1,-7.064409485E0,-1.742077332E0,7.312913235E0
1.580079850E1,-6.108796692E-1,-6.753506012E0,-2.060016174E0,7.087078669E0
1.581081650E1,-7.435038757E-1,-6.836283875E0,-1.764231262E0,7.099301879E0
1.582083450E1,-1.112935638E0,-7.422614594E0,-1.253643036E0,7.609563325E0
1.583085250E1,-1.541494446E0,-8.756790161E0,-1.359023895E0,8.994694269E0
1.584087050E1,-2.117945709E0,-1.050051407E1,-1.066382446E0,1.076492737E1
1.585088950E1,-2.794239349E0,-1.256816437E1,9.026229858E-2,1.287535151E1
1.586090750E1,-3.402274933E0,-1.470092926E1,1.487007751E0,1.516258513E1
1.587092550E1,-3.345842285E0,-1.588302109E1,2.728376312E0,1.645931520E1
1.588094350E1,-3.659739532E0,-1.554472458E1,2.272574158E0,1.613061527E1
1.589096150E1,-3.963757324E0,-1.321601715E1,1.849553833E0,1.392103914E1
1.590097950E1,-4.030668182E0,-1.089075256E1,1.087189178E0,1.166347966E1
1.591099750E1,-3.485352173E0,-9.328900452E0,7.502398682E-1,9.986937632E0
1.592101550E1,-2.708018646E0,-8.322992249E0,7.734416199E-1,8.786567982E0
1.593103350E1,-1.627565460E0,-7.710615692E0,3.957769775E-1,7.890450120E0
1.594105150E1,-5.571414185E-1,-7.360344086E0,1.096769257E0,7.462437566E0
1.595106950E1,5.120851135E-1,-6.876999207E0,1.557660828E0,7.069770612E0
1.596108750E1,1.344653778E0,-6.389762421E0,1.575623474E0,6.717123410E0
1.597110650E1,1.748813324E0,-6.425088959E0,1.794318695E0,6.896353801E0
1.598112450E1,1.914668427E0,-6.545438690E0,1.332978058E0,6.948780708E0
1.599114250E1,1.987117767E0,-6.774013367E0,7.475454712E-1,7.098923746E0
1.600116050E1,1.811532898E0,-7.299271088E0,-7.050338745E-2,7.521035871E0
1.601117850E1,1.495989075E0,-8.015381927E0,-8.906478882E-1,8.202291413E0
1.602119650E1,1.202748871E0,-8.865613861E0,-1.321002960E0,9.043824567E0
1.603121450E1,1.167272644E0,-9.682165833E0,-1.689686279E0,9.897570427E0
1.604123250E1,1.272803192E0,-1.033705399E1,-1.865570526E0,1.058088212E1
1.605125050E1,1.380279694E0,-1.081051941E1,-1.667232971E0,1.102506996E1
1.606126862E1,1.683549042E0,-1.111573471E1,-1.288819885E0,1.131613681E1
1.607128662E1,1.939067688E0,-1.107546844E1,-8.725355530E-1,1.127773484E1
1.608130462E1,1.966011658E0,-1.076411591E1,-3.369493103E-1,1.094737082E1
1.609132362E1,1.879790955E0,-1.040127045E1,1.541793823E-2,1.056978139E1
1.610134162E1,1.779798889E0,-9.986632690E0,2.582130432E-1,1.014727503E1
1.611135963E1,1.741328888E0,-9.539662170E0,3.501219177E-1,9.703605824E0
1.612137762E1,1.621877289E0,-9.188342743E0,4.240681458E-1,9.340019384E0
1.613139562E1,1.421593781E0,-8.900641022E0,5.496569824E-1,9.030197244E0
1.614141362E1,1.225501556E0,-8.671317902E0,8.945397949E-1,8.803056836E0
1.615143163E1,9.777667236E-1,-8.396339722E0,1.470541992E0,8.580037426E0
1.616144962E1,7.125183105E-1,-7.987689514E0,1.955533447E0,8.254391388E0
1.617146762E1,3.516188049E-1,-7.619305573E0,2.414179688E0,8.000357289E0
1.618148562E1,-3.412902832E-2,-7.194488983E0,2.617007904E0,7.655753842E0
1.619150363E1,-4.055067444E-1,-6.731651459E0,2.549797668E0,7.209787461E0
1.620152162E1,-8.610095215E-1,-6.415359192E0,2.348915405E0,6.885896785E0
1.621153962E1,-1.513802032E0,-6.429579620E0,1.927541656E0,6.880879851E0
1.622155862E1,-2.261347504E0,-6.919361115E0,1.388063507E0,7.410666034E0
1.623157662E1,-2.951711884E0,-8.030051422E0,9.304650879E-1,8.605817461E0
1.624159462E1,-3.107537842E0,-9.386979675E0,7.541317749E-1,9.916697716E0
1.625161262E1,-2.597099304E0,-1.076935501E1,6.965016174E-1,1.109995706E1
1.626163062E1,-1.829645233E0,-1.223316101E1,7.307803345E-1,1.239079779E1
1.627164862E1,-1.016087036E0,-1.356913284E1,1.015188904E0,1.364494073E1
1.628166662E1,-1.821711731E-1,-1.441831696E1,1.581461334E0,1.450593224E1
1.629168462E1,9.253756714E-1,-1.453612198E1,2.365979919E0,1.475645700E1
1.630170263E1,2.165995789E0,-1.403152130E1,2.944526825E0,1.449984021E1
1.631172062E1,3.063679047E0,-1.319146820E1,3.020568695E0,1.387533055E1
1.632173862E1,3.618724823E0,-1.226354782E1,2.361189880E0,1.300249946E1
1.633175662E1,3.783681793E0,-1.122785156E1,1.593735809E0,1.195495263E1
1.634177563E1,3.657045135E0,-1.022942780E1,9.410929871E-1,1.090416563E1
1.635179362E1,3.290756836E0,-9.206155701E0,4.031117249E-1,9.784931395E0
1.636181162E1,2.661166077E0,-8.157735901E0,6.990463257E-2,8.581104042E0
1.637182962E1,1.709445190E0,-7.173981628E0,7.020401001E-2,7.375170769E0
1.638184763E1,5.289999390E-1,-6.389463043E0,1.981878662E-1,6.414386747E0
1.639186562E1,-5.146298218E-1,-5.805227966E0,6.810836792E-2,5.828392089E0
1.640188362E1,-1.193019104E0,-5.359454956E0,-3.138972473E-1,5.499598484E0
1.641190162E1,-1.704206085E0,-5.310506744E0,-6.333329773E-1,5.613101720E0
1.642191963E1,-2.454296265E0,-5.641019440E0,-9.307644653E-1,6.221815890E0
1.643193762E1,-3.203039246E0,-6.201753387E0,-1.345102844E0,7.108481353E0
1.644195562E1,-3.718267822E0,-7.690707092E0,-1.471290436E0,8.668170898E0
1.645197362E1,-3.915258179E0,-1.034453842E1,-1.506467285E0,1.116280276E1
1.646199163E1,-3.401227112E0,-1.312306046E1,-1.882635040E0,1.368675916E1
1.647201062E1,-2.419269104E0,-1.592867615E1,-2.970123596E0,1.638283312E1
1.648202862E1,-1.226399689E0,-1.948887268E1,-3.611090698E0,1.985850424E1
1.649204663E1,8.177494812E-1,-2.436752747E1,-3.111729126E0,2.457901477E1
1.650206462E1,2.993025970E0,-2.963971390E1,-3.101250916E0,2.995143739E1
1.651208262E1,5.877826996E0,-2.565784424E1,-4.040248260E0,2.663076092E1
1.652210062E1,7.595804443E0,-1.643761780E1,-5.102589111E0,1.881297264E1
1.653211863E1,7.956554260E0,-1.139625137E1,-3.794309692E0,1.440757048E1
1.654213662E1,7.661966858E0,-7.165599060E0,-2.613415375E0,1.081117412E1
1.655215462E1,8.101902008E0,-4.424050140E0,-1.245260468E0,9.314703937E0
1.656217262E1,7.965535583E0,-2.586321716E0,-1.300794983E0,8.475310303E0
1.657219063E1,5.655539246E0,-1.922601929E0,-8.689430237E-1,6.036272386E0
1.658220862E1,3.089874573E0,-3.554358673E0,1.841770020E0,5.056966211E0
1.659222762E1,8.970845032E-1,-5.039420471E0,2.679727478E0,5.777668963E0
1.660224562E1,-1.076261902E0,-6.182144165E0,2.476749573E0,6.746223729E0
1.661226363E1,-1.983525238E0,-7.237749023E0,2.763403473E0,7.997235901E0
1.662228162E1,-1.733994141E0,-7.667205963E0,2.549049225E0,8.263802691E0
1.663229962E1,-2.064207458E0,-8.263565826E0,2.081571350E0,8.768147574E0
1.664231762E1,-2.008373566E0,-8.561446381E0,1.398691406E0,8.904395890E0
1.665233562E1,-1.365610199E0,-8.734187164E0,8.276289368E-1,8.878957500E0
