"Time (s)","Acceleration x (m/s^2)","Acceleration y (m/s^2)","Acceleration z (m/s^2)","Absolute acceleration (m/s^2)"
1.117833424E-3,-1.760938110E0,4.225862274E0,7.616311798E0,8.886338976E0
1.114983344E-2,-2.019749908E0,4.158652039E0,8.265511780E0,9.470610405E0
2.118183346E-2,-1.797013092E0,4.103117523E0,9.334738312E0,1.035384802E1
3.121283348E-2,-1.397493896E0,3.941304016E0,9.881401520E0,1.072981652E1
4.124483350E-2,-1.050066376E0,3.819756775E0,9.865085449E0,1.063076160E1
5.127683352E-2,-1.004411316E0,3.831282806E0,9.665550385E0,1.044559401E1
6.130883330E-2,-1.087488556E0,3.812122650E0,9.376501465E0,1.018006337E1
7.134083332E-2,-1.249751129E0,3.694167938E0,9.084309082E0,9.886021755E0
8.137283335E-2,-1.548529816E0,3.600911865E0,8.853489075E0,9.682395347E0
9.140483337E-2,-1.795366516E0,3.537144470E0,8.686137085E0,9.549016148E0
1.014368334E-1,-1.992805939E0,3.442241821E0,8.574319611E0,9.451944829E0
1.114688334E-1,-2.086211700E0,3.394042053E0,8.637937317E0,9.512400423E0
1.214998334E-1,-2.001487885E0,3.367846527E0,8.760981445E0,9.597038078E0
1.315318334E-1,-1.926044769E0,3.296894073E0,8.699160004E0,9.500239142E0
1.415638335E-1,-2.003284149E0,3.275937653E0,8.533753967E0,9.357877519E0
1.515958335E-1,-2.066153412E0,3.259471893E0,8.433462524E0,9.274504682E0
1.616278335E-1,-2.026934967E0,3.223995667E0,8.389304352E0,9.213199277E0
1.716598335E-1,-1.929936676E0,3.193758545E0,8.442144470E0,9.230089516E0
1.816918333E-1,-1.837279358E0,3.235671387E0,8.497978363E0,9.276896088E0
1.917238333E-1,-1.697021027E0,3.342399445E0,8.741521912E0,9.511346894E0
2.017558333E-1,-1.490151215E0,3.418890381E0,8.996142426E0,9.738580010E0
2.117868334E-1,-1.253193970E0,3.460952911E0,9.152267761E0,9.864719730E0
2.218188334E-1,-1.099014587E0,3.505260773E0,9.088051300E0,9.802416160E0
2.318508334E-1,-1.110241241E0,3.541485443E0,8.935668182E0,9.675790439E0
2.418828334E-1,-1.220262451E0,3.563040619E0,8.804989929E0,9.576645893E0
2.519148334E-1,-1.275647278E0,3.564088440E0,8.772956543E0,9.554829611E0
2.619468335E-1,-1.249002686E0,3.563489685E0,8.811127167E0,9.586158166E0
2.719788335E-1,-1.280587006E0,3.560645599E0,8.845555573E0,9.620912303E0
2.820108335E-1,-1.349144440E0,3.520529022E0,9.040001221E0,9.794689244E0
2.920418335E-1,-1.196761322E0,3.411555634E0,9.432035980E0,1.010120053E1
3.020738333E-1,-1.009500732E0,3.226091309E0,9.655371552E0,1.023000277E1
3.121058333E-1,-1.007554779E0,3.110980682E0,9.643396454E0,1.018275319E1
3.221378333E-1,-1.127156067E0,3.110381927E0,9.533225555E0,1.009095367E1
3.321698334E-1,-1.242117004E0,3.160078583E0,9.404642944E0,9.998812940E0
3.422018334E-1,-1.357826385E0,3.184028778E0,9.314380646E0,9.936771033E0
3.522338334E-1,-1.454974365E0,3.275039520E0,9.334289246E0,9.998589400E0
3.622658334E-1,-1.401385803E0,3.316054230E0,9.292226715E0,9.965218269E0
3.722978334E-1,-1.347647552E0,3.315305786E0,9.219328308E0,9.889561205E0
3.823288335E-1,-1.318907318E0,3.324287109E0,9.111103363E0,9.787880557E0
3.923608335E-1,-1.300046539E0,3.342698822E0,9.041348419E0,9.726753706E0
4.023928335E-1,-1.359622650E0,3.385509796E0,9.181157684E0,9.879468951E0
4.124248335E-1,-1.358275452E0,3.439996490E0,9.514065399E0,1.020764069E1
4.224568333E-1,-1.319655762E0,3.413052521E0,9.802665253E0,1.046339643E1
4.324888333E-1,-1.268611908E0,3.346291351E0,9.978998566E0,1.060129494E1
4.425208333E-1,-1.222507782E0,3.297193451E0,1.007330246E1,1.066946261E1
4.525528334E-1,-1.185235291E0,3.253783722E0,1.009919861E1,1.067640875E1
4.625848334E-1,-1.089135132E0,3.251089325E0,1.009321106E1,1.065967667E1
4.726158334E-1,-1.000070343E0,3.235821075E0,1.008542725E1,1.063891543E1
4.826478334E-1,-9.419911194E-1,3.177741852E0,1.018287460E1,1.070870327E1
4.926798334E-1,-8.292755127E-1,3.149450684E0,1.035920792E1,1.085909417E1
5.027118335E-1,-7.235952759E-1,3.065774689E0,1.047865952E1,1.094188603E1
5.127438335E-1,-5.673202515E-1,2.981949005E0,1.053958282E1,1.096798424E1
5.227758335E-1,-4.411326599E-1,2.920127563E0,1.054841446E1,1.095403079E1
5.328078335E-1,-4.087998962E-1,2.866688690E0,1.051353699E1,1.090502093E1
5.428398333E-1,-3.682342529E-1,2.836601257E0,1.039767792E1,1.078395147E1
5.528718333E-1,-2.751278687E-1,2.852617950E0,1.025562332E1,1.064851794E1
5.629028333E-1,-1.700463867E-1,2.880909119E0,1.009590546E1,1.050027905E1
5.729348334E-1,-1.586700439E-2,2.933898926E0,9.853110352E0,1.028065165E1
5.829668334E-1,1.339714050E-1,2.975961456E0,9.602232056E0,1.005371351E1
5.929988334E-1,3.091072083E-1,2.987188110E0,9.253008270E0,9.728155124E0
6.030308334E-1,4.846920776E-1,3.010090485E0,8.945996704E0,9.451265956E0
6.130628334E-1,6.261479187E-1,3.039878540E0,8.832981720E0,9.362397600E0
6.230948335E-1,7.846682739E-1,2.968027954E0,8.886869659E0,9.402199029E0
6.331268335E-1,9.340576172E-1,2.805765381E0,9.060658264E0,9.531018371E0
6.431588335E-1,9.671388245E-1,2.589614868E0,9.267378387E0,9.670871980E0
6.531898335E-1,9.217831421E-1,2.390977936E0,9.426198120E0,9.768299271E0
6.632218333E-1,9.481283569E-1,2.230511627E0,9.559421082E0,9.861879178E0
6.732538333E-1,1.094224548E0,2.051034851E0,9.689799957E0,9.964752608E0
6.832858333E-1,1.770218811E0,1.892963562E0,1.053973251E1,1.085370661E1
6.933178334E-1,3.952380981E0,2.063159637E0,1.406744659E1,1.475706600E1
7.033498334E-1,3.570075989E0,1.744172974E0,1.210248276E1,1.273804031E1
7.133818334E-1,4.190535736E0,1.666185150E0,1.270737488E1,1.348384734E1
7.234138334E-1,2.067500610E0,1.811233521E0,1.104777603E1,1.138457206E1
7.334448334E-1,4.290078735E-1,1.956132202E0,9.053622894E0,9.272463991E0
7.434768334E-1,4.358935547E-1,2.116448822E0,9.164392548E0,9.415702288E0
7.535088335E-1,7.689509583E-1,2.113455048E0,9.765093384E0,1.002072984E1
7.635408335E-1,1.238524475E0,2.031275940E0,9.650880890E0,9.939795107E0
7.735728335E-1,1.619332581E0,1.997745667E0,8.994795227E0,9.355189305E0
7.836048333E-1,1.866618347E0,2.036664734E0,8.269852753E0,8.719101550E0
7.936369583E-1,1.906734924E0,2.035317535E0,7.966134338E0,8.440228186E0
8.036689584E-1,1.497336273E0,2.013163605E0,7.904462585E0,8.293091847E0
8.137009584E-1,4.011657715E-1,2.119891663E0,6.696923676E0,7.035883836E0
8.237319584E-1,-9.135502625E-1,2.214644623E0,5.238356781E0,5.760174186E0
8.337639584E-1,3.965254211E-1,3.235671387E0,6.320007477E0,7.111209197E0
8.437959584E-1,1.609004059E0,3.908222809E0,5.781876526E0,7.161926818E0
8.538279585E-1,1.770967255E0,3.537743225E0,4.831951904E0,6.244974888E0
8.638599585E-1,1.256636810E0,2.909349976E0,4.488416290E0,5.494482155E0
8.738919585E-1,2.380050659E-2,2.205962677E0,7.199578400E0,7.529991164E0
8.839239585E-1,1.819167023E0,1.967508545E0,1.444795532E1,1.469434829E1
8.939559583E-1,3.671564941E0,2.035916290E0,1.451441711E1,1.510938941E1
9.039879583E-1,4.503834229E0,2.440524902E0,1.299298096E1,1.396632517E1
9.140189583E-1,2.117796021E0,2.076781311E0,1.094643677E1,1.134118858E1
9.240509584E-1,1.198557587E0,1.807341614E0,9.956096191E0,1.018954736E1
9.340829584E-1,1.028660889E0,1.911225586E0,8.652008057E0,8.920099208E0
9.441149584E-1,1.710493011E0,2.363584900E0,7.530839539E0,8.076253096E0
9.541469584E-1,3.324137421E0,2.742447052E0,7.793842621E0,8.905890647E0
9.641789584E-1,4.232598267E0,2.512674866E0,8.052654419E0,9.437884628E0
9.742109585E-1,3.678151245E0,1.883832550E0,7.787705383E0,8.816233708E0
9.842429585E-1,2.903063049E0,1.440155182E0,7.811206512E0,8.456758788E0
9.942749585E-1,2.675236816E0,1.400487671E0,8.371341705E0,8.899304450E0
1.004305959E0,2.809058533E0,1.485510864E0,9.031019897E0,9.573759594E0
1.014337958E0,3.106939087E0,1.482068024E0,9.602681122E0,1.020103332E1
1.024369958E0,3.426823883E0,1.372196503E0,9.991722107E0,1.065178651E1
1.034401958E0,3.652404785E0,1.190923462E0,1.010084518E1,1.080673090E1
1.044433958E0,3.859274597E0,9.696835327E-1,1.033675461E1,1.107622600E1
1.054465958E0,3.974834290E0,7.548802185E-1,1.048524582E1,1.123875134E1
1.064497958E0,3.326233063E0,9.238787842E-1,1.062385757E1,1.117066373E1
1.074529958E0,1.595831451E0,1.408570862E0,1.017748581E1,1.039769048E1
1.084561958E0,2.878514099E-1,1.398841095E0,9.930499420E0,1.003266832E1
1.094592958E0,-2.133962402E0,1.663790131E0,8.477471008E0,8.898848680E0
1.104624958E0,-2.318827972E0,1.426234131E0,9.114695892E0,9.512559496E0
1.114656958E0,-1.005159760E0,1.453627167E0,1.072624466E1,1.087086485E1
1.124688959E0,-2.929408264E-1,1.651515656E0,1.170056854E1,1.182017862E1
1.134720958E0,4.453239441E-1,1.715432739E0,1.215173035E1,1.228029207E1
1.144752958E0,6.830296326E-1,1.638792114E0,1.170206543E1,1.183598346E1
1.154784958E0,5.432203674E-1,1.377585297E0,1.084734283E1,1.094795306E1
1.164816958E0,3.333567810E-1,1.045575714E0,9.957144012E0,1.001743841E1
1.174847958E0,3.118016052E-1,7.776329041E-1,9.340127106E0,9.377628033E0
1.184879958E0,5.911207581E-1,6.674620056E-1,9.140741730E0,9.184121550E0
1.194911958E0,1.047371979E0,7.173083496E-1,9.331295471E0,9.417249837E0
1.204943958E0,1.325493622E0,8.122109985E-1,9.596693573E0,9.721787263E0
1.214975958E0,1.442699890E0,8.774752808E-1,9.722282410E0,9.867832644E0
1.225007958E0,1.487456818E0,9.780661011E-1,9.713750153E0,9.875529510E0
1.235039958E0,1.523980865E0,1.019230499E0,9.855804749E0,1.002488083E1
1.245071959E0,1.484463043E0,9.527687073E-1,1.022403900E1,1.037508420E1
1.255103958E0,1.424587555E0,8.666976929E-1,1.068642746E1,1.081574530E1
1.265134958E0,1.453926544E0,7.982899475E-1,1.131122818E1,1.143219367E1
1.275166958E0,1.566043396E0,7.376660156E-1,1.195818283E1,1.208282995E1
1.285198958E0,1.669178925E0,6.421646118E-1,1.249616409E1,1.262349598E1
1.295230958E0,1.713636475E0,5.963598633E-1,1.278446457E1,1.291258028E1
1.305262958E0,1.681603088E0,5.743556213E-1,1.299372940E1,1.311467411E1
1.315294958E0,1.593885498E0,5.161267090E-1,1.314341812E1,1.324976595E1
1.325326958E0,1.502575378E0,4.737648010E-1,1.323338104E1,1.332683607E1
1.335358958E0,1.334774323E0,5.164260864E-1,1.316422485E1,1.324179498E1
1.345390958E0,1.146016846E0,6.358776855E-1,1.284643570E1,1.291311756E1
1.355421958E0,9.431886292E-1,7.797285461E-1,1.230052094E1,1.236124576E1
1.365453959E0,6.741979980E-1,9.500743103E-1,1.169248535E1,1.175037863E1
1.375485958E0,4.221221924E-1,1.157093811E0,1.116677856E1,1.123450029E1
1.385517958E0,2.022294617E-1,1.367406464E0,1.065454376E1,1.074383544E1
1.395549958E0,1.945953369E-2,1.522483978E0,9.968370667E0,1.008398482E1
1.405581958E0,-8.277786255E-2,1.587299194E0,9.222172394E0,9.358142688E0
1.415613958E0,-7.604187012E-2,1.644779663E0,8.594976654E0,8.751268833E0
1.425645958E0,6.361770630E-2,1.772015076E0,8.110733643E0,8.302293952E0
1.435676958E0,2.374063110E-1,1.894310760E0,7.748936005E0,7.980650614E0
1.445708958E0,3.388952637E-1,2.002685394E0,7.507188721E0,7.777112657E0
1.455740958E0,4.099974060E-1,2.086062012E0,7.351961517E0,7.653175207E0
1.465772958E0,3.939807129E-1,2.186802521E0,7.276668091E0,7.608365434E0
1.475804958E0,3.662882996E-1,2.239043884E0,7.293133850E0,7.637884916E0
1.485836959E0,3.803590393E-1,2.224973145E0,7.359745331E0,7.698118590E0
1.495868958E0,3.933819580E-1,2.212099915E0,7.425907745E0,7.758365887E0
1.505900958E0,3.975732422E-1,2.250270538E0,7.496560822E0,7.837104448E0
1.515932958E0,3.713777161E-1,2.315385132E0,7.652386780E0,8.003621252E0
1.525963958E0,2.037263489E-1,2.417622528E0,7.881709900E0,8.246681397E0
1.535995958E0,-2.529739380E-2,2.564467163E0,8.052654419E0,8.451175952E0
1.546027958E0,-2.121089172E-1,2.730322266E0,8.182284851E0,8.628408616E0
1.556059958E0,-2.580633545E-1,2.937042389E0,8.284821625E0,8.793809416E0
1.566091958E0,-3.195854187E-1,3.093167725E0,8.308622131E0,8.871472433E0
1.576123958E0,-4.144880676E-1,3.212020569E0,8.208480377E0,8.824286181E0
1.586155958E0,-4.248165894E-1,3.337908783E0,8.092022552E0,8.763728269E0
1.596187958E0,-4.589456177E-1,3.515140228E0,8.094567261E0,8.836790200E0
1.606218959E0,-5.771997070E-1,3.695964203E0,8.132438507E0,8.951528750E0
1.616250958E0,-7.840695190E-1,3.833677826E0,8.175548859E0,9.063743698E0
1.626282958E0,-9.951306152E-1,3.955524445E0,8.317753143E0,9.263988122E0
1.636314958E0,-1.141226807E0,4.008214874E0,8.610394592E0,9.565933312E0
1.646346958E0,-1.267264709E0,3.996688843E0,8.927734680E0,9.863261533E0
1.656378958E0,-1.377435608E0,3.949985962E0,9.224268036E0,1.012851612E1
1.666410958E0,-1.451381836E0,3.834426270E0,9.426946564E0,1.027991515E1
1.676442958E0,-1.505269775E0,3.753294983E0,9.467512207E0,1.029499139E1
1.686474958E0,-1.514999542E0,3.683090973E0,9.576485596E0,1.037156975E1
1.696505958E0,-1.482517090E0,3.627257080E0,9.668843536E0,1.043270752E1
1.706537958E0,-1.501677246E0,3.559597778E0,9.641899567E0,1.038710730E1
1.716569958E0,-1.563049622E0,3.455414429E0,9.464518433E0,1.019608367E1
1.726601959E0,-1.618135071E0,3.286565552E0,9.135352936E0,9.842486855E0
1.736633958E0,-1.480571136E0,3.137026520E0,8.734037476E0,9.397682528E0
1.746665958E0,-1.252744904E0,3.024610291E0,8.286468201E0,8.909724600E0
1.756697958E0,-1.147962799E0,2.925666046E0,7.798183594E0,8.407675527E0
1.766729958E0,-1.089883575E0,2.912942505E0,7.354057159E0,7.984687655E0
1.776761958E0,-1.100960541E0,2.904410248E0,6.892566833E0,7.560105195E0
1.786794208E0,-9.750723267E-1,2.916385345E0,6.390061798E0,7.091470885E0
1.796826208E0,-8.211923218E-1,2.873574371E0,5.823190613E0,6.545329282E0
1.806858208E0,-5.063969421E-1,2.751128998E0,5.544619904E0,6.210310661E0
1.816890209E0,6.721023560E-2,2.492915955E0,5.463189240E0,6.005462833E0
1.826922208E0,4.915777588E-1,2.097288666E0,5.500761108E0,5.907507191E0
1.836954208E0,5.490582275E-1,1.654958496E0,5.739364929E0,5.998388313E0
1.846986208E0,3.912863159E-1,1.287472687E0,6.144123230E0,6.289748895E0
1.857018208E0,-8.367599487E-2,1.090781708E0,6.623426514E0,6.713165065E0
1.867049208E0,-8.375083923E-1,1.322350159E0,7.392227783E0,7.556127437E0
1.877081208E0,-7.750881958E-1,2.087558899E0,8.279732208E0,8.573950624E0
1.887113208E0,-5.484594727E-1,2.695594482E0,8.754544830E0,9.176551236E0
1.897145208E0,-1.065933380E0,2.987936554E0,8.661887512E0,9.224547365E0
1.907177208E0,-2.222727814E0,2.737507324E0,8.680748291E0,9.369624121E0
1.917209208E0,-3.381318512E0,2.313289490E0,9.068741455E0,9.951215741E0
1.927241208E0,-4.127516785E0,2.095791779E0,9.734856262E0,1.077943247E1
1.937273209E0,-4.410578156E0,2.136507111E0,1.070483917E1,1.177333615E1
1.947304208E0,-3.936364288E0,2.357148285E0,1.188094345E1,1.273608767E1
1.957336208E0,-2.526895294E0,2.390528870E0,1.308414139E1,1.353863302E1
1.967368208E0,-1.728904724E-1,1.891915741E0,1.470736588E1,1.482955992E1
1.977400208E0,2.316432953E0,8.000862122E-1,1.665002609E1,1.682941973E1
1.987432208E0,4.790937195E0,-3.462300110E-1,1.820379501E1,1.882687195E1
1.997464208E0,6.421496429E0,-1.240470428E0,1.944800766E1,2.051826955E1
2.007496208E0,6.972201233E0,-1.858235779E0,2.101000946E1,2.221452515E1
2.017528208E0,6.799310760E0,-2.622097321E0,2.293111450E1,2.406121430E1
2.027560208E0,5.915847931E0,-3.500919800E0,2.384735916E1,2.481834473E1
2.037591208E0,4.630470886E0,-4.076921997E0,2.271152115E1,2.353456493E1
2.047623208E0,3.391647034E0,-4.244423676E0,1.997491196E1,2.070061617E1
2.057655209E0,2.542313232E0,-3.683989105E0,1.633403320E1,1.693622665E1
2.067687208E0,2.641856232E0,-2.395318909E0,1.287248154E1,1.335731028E1
2.077719208E0,3.386258240E0,-9.954299927E-1,1.024439667E1,1.083537211E1
2.087751208E0,3.913761292E0,3.397933960E-2,8.364156647E0,9.234597904E0
2.097783208E0,3.734134827E0,6.054908752E-1,6.953041077E0,7.915501394E0
2.107815208E0,3.302282867E0,1.009051666E0,5.944288788E0,6.874432820E0
2.117846208E0,2.670596466E0,1.458117828E0,5.319039001E0,6.127835587E0
2.127878208E0,2.293680267E0,1.877246246E0,5.073848877E0,5.876135215E0
2.137910208E0,2.375110931E0,2.099833374E0,5.085973663E0,5.993127751E0
2.147942208E0,2.409090271E0,2.152224426E0,5.276677094E0,6.187011158E0
2.157974208E0,2.036065979E0,2.083367615E0,5.367987213E0,6.107476730E0
2.168006208E0,1.318607941E0,1.958976288E0,5.515580292E0,5.999828410E0
2.178038209E0,6.845265198E-1,1.851050720E0,5.841602325E0,6.165977867E0
2.188070208E0,5.577401733E-1,1.852846985E0,6.373146973E0,6.660414280E0
2.198102208E0,7.595205688E-1,1.796114960E0,6.895261230E0,7.165718937E0
2.208133208E0,8.059240723E-1,1.632654877E0,7.226672058E0,7.452507269E0
2.218165208E0,7.467970276E-1,1.416803741E0,7.136709137E0,7.314209181E0
2.228197208E0,6.911128235E-1,1.247056732E0,6.685996399E0,6.836324691E0
2.238229208E0,7.427554321E-1,1.196312256E0,6.128854980E0,6.288538146E0
2.248261208E0,8.020321655E-1,1.153052216E0,5.672753448E0,5.844049683E0
2.258293208E0,7.747888184E-1,1.185684357E0,5.270839233E0,5.457828445E0
2.268325208E0,7.366181946E-1,1.334325256E0,4.930147705E0,5.160366910E0
2.278357208E0,6.747967529E-1,1.497635651E0,4.640050964E0,4.922228779E0
2.288388208E0,4.914280701E-1,1.740281067E0,4.449796600E0,4.803204089E0
2.298420209E0,1.621128845E-1,2.001936951E0,4.362528076E0,4.802674605E0
2.308452208E0,-2.607577515E-1,2.221380615E0,4.338877258E0,4.881432403E0
2.318484208E0,-5.301974487E-1,2.496508484E0,4.506528625E0,5.179040857E0
2.328516208E0,-5.222639465E-1,2.744243317E0,4.717290344E0,5.482377149E0
2.338548208E0,-3.779640198E-1,2.982398071E0,4.810247040E0,5.672392056E0
2.348580208E0,7.783813477E-3,2.729124756E0,4.455185394E0,5.224639645E0
2.358612208E0,7.403604126E-1,2.239942017E0,4.031266937E0,4.670822936E0
2.368643208E0,1.209484863E0,1.564696198E0,4.677173767E0,5.078098293E0
2.378675208E0,1.526525574E0,5.471122742E-1,6.630461884E0,6.825879940E0
2.388707208E0,2.251018982E0,-5.882766724E-1,9.448801117E0,9.731032753E0
2.398739208E0,3.482358398E0,-1.517244873E0,1.249915787E1,1.306360591E1
2.408771208E0,4.887486420E0,-2.355202332E0,1.544652878E1,1.637161424E1
2.418803209E0,6.490053864E0,-3.196153564E0,1.789034683E1,1.929768656E1
2.428835208E0,7.486381989E0,-3.864064636E0,1.948034042E1,2.122405649E1
2.438867208E0,6.858288116E0,-3.670217743E0,2.023836411E1,2.168174338E1
2.448899208E0,5.744753723E0,-2.166594543E0,2.084535187E1,2.173073910E1
2.458930208E0,5.074148254E0,-2.594105530E-1,2.192954727E1,2.251042687E1
2.468962208E0,4.241130524E0,8.189469910E-1,2.312750610E1,2.352741807E1
2.478994208E0,3.201991425E0,6.837780762E-1,2.366234390E1,2.388779648E1
2.489026208E0,2.469714203E0,9.310638428E-2,2.324411362E1,2.337513583E1
2.499058208E0,2.971770172E0,-1.553768921E-1,2.176429092E1,2.196679129E1
2.509090208E0,4.116439819E0,1.661544800E-2,1.923125839E1,1.966689229E1
2.519122208E0,5.104834442E0,1.303788757E-1,1.641261978E1,1.718867131E1
2.529154208E0,5.536836090E0,-3.263214111E-2,1.385264328E1,1.491822190E1
2.539185209E0,5.636828156E0,-1.585203552E-1,1.168350403E1,1.297317335E1
2.549217209E0,5.410349121E0,-3.278182983E-2,9.727820892E0,1.113119273E1
2.559249208E0,4.828209686E0,2.146536255E-1,8.157885590E0,9.482024164E0
2.569281208E0,4.248914337E0,8.156538391E-1,7.231761475E0,8.427154814E0
2.579313208E0,3.491040344E0,1.654210052E0,6.633755035E0,7.676619012E0
2.589345208E0,2.357747040E0,2.395917664E0,6.331982574E0,7.168918738E0
2.599377208E0,1.027014313E0,2.786305847E0,6.249953156E0,6.919550066E0
2.609409208E0,-5.149291992E-2,2.776426392E0,6.018534393E0,6.628269101E0
2.619440208E0,-8.598120117E-1,2.703527985E0,5.641468506E0,6.314626447E0
2.629472208E0,-1.263971558E0,2.701282654E0,5.144951019E0,5.946854048E0
2.639504208E0,-1.222507782E0,2.634371796E0,4.466262360E0,5.327470272E0
2.649536208E0,-9.397457886E-1,2.649789734E0,3.748654633E0,4.685821095E0
2.659568209E0,-6.598278809E-1,2.672542419E0,3.112178192E0,4.154937896E0
2.669600209E0,-3.957769775E-1,2.649640045E0,2.633323975E0,3.756544548E0
2.679632208E0,-2.137554932E-1,2.580334167E0,2.286345520E0,3.454155709E0
2.689664208E0,-5.957611084E-2,2.550396423E0,2.113904114E0,3.313104561E0
2.699695208E0,1.866618347E-1,2.663261719E0,2.184856567E0,3.449841133E0
2.709727208E0,-1.369651794E-1,2.619851990E0,2.371967468E0,3.536751840E0
2.719759208E0,-6.915618896E-1,2.322270813E0,2.464475098E0,3.456130363E0
2.729791208E0,-6.996450806E-1,2.313439178E0,2.646047516E0,3.583723138E0
2.739823208E0,-4.020639038E-1,2.575095062E0,3.068618774E0,4.026063977E0
2.749855208E0,-9.295669556E-2,2.768043823E0,3.844605103E0,4.738322061E0
2.759887208E0,1.679507446E-1,2.638862457E0,4.887336731E0,5.556785298E0
2.769919208E0,5.507048035E-1,2.236199799E0,5.926326141E0,6.358082011E0
2.779951209E0,1.033450928E0,1.711989899E0,6.859186249E0,7.144743958E0
2.789981750E0,1.687740326E0,1.227148132E0,8.025261383E0,8.292115545E0
2.800013750E0,2.844235382E0,9.372010803E-1,9.523346100E0,9.983092793E0
2.810045750E0,4.852309570E0,6.352789307E-1,1.128203888E1,1.229767819E1
2.820077750E0,7.092850342E0,6.376739502E-2,1.307605820E1,1.487601728E1
2.830109750E0,8.484207001E0,-3.333567810E-1,1.462309113E1,1.690939648E1
2.840141750E0,8.684340820E0,4.176315308E-2,1.520523056E1,1.751052701E1
2.850173750E0,7.946824493E0,1.263971558E0,1.501422775E1,1.703457304E1
2.860205750E0,7.076983337E0,2.905009003E0,1.484747452E1,1.670240312E1
2.870236750E0,6.809938660E0,4.723128204E0,1.486768250E1,1.702149193E1
2.880268750E0,6.305936737E0,6.123166809E0,1.496707581E1,1.735717051E1
2.890300750E0,5.149291992E0,6.541696472E0,1.524085648E1,1.736642470E1
2.900332750E0,4.464166718E0,6.443949738E0,1.546778458E1,1.734086596E1
2.910364750E0,4.393513641E0,5.968837738E0,1.536075714E1,1.705528792E1
2.920396750E0,4.551435242E0,4.870421906E0,1.459988937E1,1.604971470E1
2.930428750E0,4.976551208E0,3.398682404E0,1.298220337E1,1.431274636E1
2.940460750E0,5.213358765E0,2.188898163E0,1.082429077E1,1.221211102E1
2.950491750E0,4.907245331E0,1.246607666E0,8.605604553E0,9.984563943E0
2.960523750E0,4.174219666E0,6.370751953E-1,6.808890839E0,8.011926677E0
2.970555750E0,3.054697723E0,-1.125659180E-1,5.565576324E0,6.349762916E0
2.980587750E0,1.918260956E0,-1.010398865E0,4.904251556E0,5.362118452E0
2.990619750E0,1.282532959E0,-1.697021027E0,4.495900726E0,4.973720388E0
3.000651750E0,1.202000427E0,-1.877695312E0,4.310137024E0,4.852610213E0
3.010683750E0,1.311123505E0,-1.503623199E0,4.284989319E0,4.726633160E0
3.020715750E0,1.189426575E0,-8.481362915E-1,4.359234924E0,4.597499306E0
3.030746750E0,6.629713440E-1,-1.517843628E-1,4.387975159E0,4.440371098E0
3.040778750E0,-6.002517700E-2,4.571493530E-1,4.355792084E0,4.380127079E0
3.050810750E0,-8.098159790E-1,8.924441528E-1,4.211641846E0,4.380660398E0
3.060842750E0,-1.449435883E0,1.202748871E0,4.148922272E0,4.556426806E0
3.070874750E0,-1.743723907E0,1.535357208E0,4.185146942E0,4.786789086E0
3.080906750E0,-1.676214294E0,1.870210876E0,4.277654572E0,4.960414470E0
3.090938750E0,-1.493893433E0,2.186503143E0,4.346661072E0,5.089791357E0
3.100970750E0,-1.222657471E0,2.537822571E0,4.453089752E0,5.269292460E0
3.111001750E0,-9.857002258E-1,2.806214447E0,4.600832520E0,5.478512967E0
3.121033750E0,-9.330097961E-1,2.910996552E0,4.768783264E0,5.664424245E0
3.131065750E0,-9.991722107E-1,2.967878265E0,4.958738251E0,5.864787425E0
3.141097750E0,-9.720785522E-1,2.999761963E0,5.122348022E0,6.015144039E0
3.151129750E0,-7.596702576E-1,3.016227722E0,5.356760559E0,6.194320968E0
3.161161750E0,-4.010160828E-1,2.956651611E0,5.853427734E0,6.570024269E0
3.171193750E0,7.035369873E-3,2.869532776E0,6.736441498E0,7.322152136E0
3.181225750E0,4.522096252E-1,2.834954681E0,7.783514099E0,8.296056492E0
3.191256750E0,8.560697937E-1,2.723735962E0,9.179660797E0,9.613415909E0
3.201288750E0,1.236129456E0,2.704426117E0,1.081306412E1,1.121446799E1
3.211320750E0,1.931732941E0,2.606230316E0,1.235979767E1,1.277844384E1
3.221352750E0,3.514391785E0,2.195933533E0,1.423165512E1,1.482272179E1
3.231384750E0,5.734125824E0,1.827699280E0,1.640902725E1,1.747789630E1
3.241416750E0,7.476352844E0,1.813029785E0,1.834569992E1,1.989340681E1
3.251448750E0,7.323071594E0,2.133812714E0,1.942959595E1,2.087318215E1
3.261480750E0,6.148763580E0,2.861000519E0,1.997476227E1,2.109463783E1
3.271511750E0,5.631738739E0,3.929179230E0,2.058624069E1,2.170134181E1
3.281543750E0,5.505551147E0,4.797822876E0,2.139785294E1,2.260969500E1
3.291575750E0,5.101840668E0,5.048701172E0,2.271077271E1,2.381800492E1
3.301607750E0,5.030439148E0,4.414470062E0,2.453248444E1,2.542903177E1
3.311639750E0,5.521717529E0,2.789598999E0,2.522015442E1,2.596781500E1
3.321671750E0,6.119424591E0,9.222322083E-1,2.341640533E1,2.422036144E1
3.331703750E0,6.146817627E0,-4.968168640E-1,1.961670685E1,2.056320455E1
3.341735750E0,5.764512634E0,-1.168919220E0,1.508757523E1,1.619354514E1
3.351766750E0,4.800666962E0,-1.156195679E0,1.103370529E1,1.208825232E1
3.361798750E0,3.577859802E0,-6.975494385E-1,7.959548035E0,8.754545157E0
3.371830750E0,2.259850616E0,-1.606159973E-1,5.708079987E0,6.141245756E0
3.381862750E0,1.237476654E0,2.368075562E-1,4.237837372E0,4.421164086E0
3.391894750E0,5.068460083E-1,4.053570557E-1,3.421884155E0,3.482886503E0
3.401926750E0,-1.466949463E-1,4.800517273E-1,3.218457184E0,3.257366377E0
3.411958750E0,-8.262817383E-1,5.783972168E-1,3.483406219E0,3.626486418E0
3.421990750E0,-1.236877899E0,6.945556641E-1,4.004322968E0,4.248161595E0
3.432021750E0,-1.315913544E0,6.677613831E-1,4.691843262E0,4.918427280E0
3.442053750E0,-1.303040314E0,6.313870239E-1,5.307512970E0,5.501477761E0
3.452085750E0,-1.120719452E0,6.791377258E-1,5.592969360E0,5.744436126E0
3.462117750E0,-9.348060608E-1,9.092092896E-1,5.514981537E0,5.667057901E0
3.472149750E0,-8.113128662E-1,1.258433075E0,5.224585419E0,5.434903418E0
3.482181750E0,-7.009922791E-1,1.685045929E0,4.784051514E0,5.120343626E0
3.492213750E0,-7.002438354E-1,2.119143219E0,4.265829163E0,4.814395897E0
3.502245750E0,-8.238867188E-1,2.581232300E0,3.894451447E0,4.744291473E0
3.512276750E0,-9.380992126E-1,3.021466827E0,3.759432220E0,4.913514276E0
3.522308750E0,-1.019230499E0,3.287463684E0,3.600163422E0,4.980705266E0
3.532340750E0,-1.085093536E0,3.432512054E0,3.550317078E0,5.056116923E0
3.542372750E0,-1.145867157E0,3.343147888E0,3.474574585E0,4.956038528E0
3.552404750E0,-1.077758789E0,3.066223755E0,3.480711823E0,4.762210297E0
3.562436750E0,-8.722361755E-1,2.796484680E0,3.570375366E0,4.618300853E0
3.572468750E0,-6.740483093E-1,2.560425568E0,3.783981171E0,4.618293376E0
3.582500750E0,-4.445755005E-1,2.444716187E0,3.999083862E0,4.708179727E0
3.592531750E0,-1.725910950E-1,2.455793152E0,4.586612091E0,5.205546865E0
3.602563750E0,2.421963501E-1,2.448608093E0,5.736071777E0,6.241543087E0
3.612595750E0,8.881031799E-1,2.405048676E0,7.439379730E0,7.868758299E0
3.622627750E0,1.530267792E0,2.461181946E0,9.447902985E0,9.882408962E0
3.632659750E0,2.444267120E0,2.462828522E0,1.123892853E1,1.176237563E1
3.642691750E0,3.963457947E0,2.309247894E0,1.361703323E1,1.436889762E1
3.652723750E0,5.851930847E0,2.298619995E0,1.661125671E1,1.776126679E1
3.662755750E0,7.582033081E0,2.802023163E0,1.980022522E1,2.138661914E1
3.672786750E0,8.034242706E0,3.477718048E0,2.217623428E1,2.384174796E1
3.682818750E0,7.310348053E0,4.179159393E0,2.295162186E1,2.444756650E1
3.692850750E0,6.678661652E0,5.180576935E0,2.197879486E1,2.354804286E1
3.702882750E0,6.821464691E0,6.228847046E0,2.023896286E1,2.224739386E1
3.712914750E0,7.547155609E0,6.982380066E0,1.855691071E1,2.121490335E1
3.722946750E0,8.225095825E0,6.930138702E0,1.739397903E1,2.045066088E1
3.732978750E0,9.020391998E0,5.995632019E0,1.687635544E1,2.005309073E1
3.743010750E0,1.005578888E1,4.485871582E0,1.669178925E1,1.999644374E1
3.753041750E0,1.079480209E1,2.794538727E0,1.603181168E1,1.952834311E1
3.763073750E0,1.115989288E1,1.777403870E0,1.485570740E1,1.866532657E1
3.773105750E0,1.011805939E1,1.268761597E0,1.312605423E1,1.662161789E1
3.783137750E0,8.080646210E0,1.063089294E0,1.093685669E1,1.363971540E1
3.793169250E0,6.392456818E0,9.665400696E-1,8.738528137E0,1.087012318E1
3.803201250E0,5.225782928E0,1.119521942E0,6.837631073E0,8.678440833E0
3.813233250E0,4.380490723E0,1.827848969E0,5.413642273E0,7.199809267E0
3.823265250E0,3.329975281E0,2.306852875E0,4.387825470E0,5.971877252E0
3.833296250E0,2.074086914E0,2.234253845E0,3.747008057E0,4.830506821E0
3.843328250E0,1.386117554E0,2.219734039E0,3.558250580E0,4.416977277E0
3.853360250E0,1.170416107E0,2.189047852E0,3.413950653E0,4.221002656E0
3.863392250E0,1.167871399E0,1.935624847E0,3.447331238E0,4.122457982E0
3.873424250E0,1.167572021E0,1.460662537E0,3.416794739E0,3.895028339E0
3.883456250E0,9.892927551E-1,8.306227112E-1,3.226390686E0,3.475374959E0
3.893488250E0,4.469705200E-1,6.902146912E-1,3.360062714E0,3.459219624E0
3.903520250E0,8.232879639E-3,7.485932922E-1,3.513793030E0,3.592659343E0
3.913551250E0,-3.475772095E-1,8.075706482E-1,3.525019684E0,3.633007575E0
3.923583250E0,-6.493496704E-1,1.334624634E0,3.513194275E0,3.813844769E0
3.933615250E0,-7.957452393E-1,1.870659943E0,3.159180450E0,3.756727329E0
3.943647250E0,-9.780661011E-1,2.172432404E0,2.490071869E0,3.446234722E0
3.953679250E0,-1.159039764E0,2.316732330E0,1.793420563E0,3.150710901E0
3.963711250E0,-1.185983734E0,2.353406067E0,1.320853271E0,2.947834951E0
3.973743250E0,-1.022373962E0,2.412982178E0,1.028960266E0,2.815402411E0
3.983775250E0,-6.905140686E-1,2.385888519E0,9.972262573E-1,2.676515256E0
3.993806250E0,-4.047583008E-1,2.188299408E0,1.339564362E0,2.597482677E0
4.003838250E0,-3.128494263E-1,1.493444366E0,1.930984497E0,2.461087558E0
4.013870250E0,-6.391708374E-2,7.836204529E-1,2.634072418E0,2.748905948E0
4.023902250E0,4.022135925E-1,5.375321960E-1,3.286715240E0,3.354581003E0
4.033934250E0,1.083297272E0,1.004860382E0,3.868405609E0,4.140994968E0
4.043966250E0,1.926044769E0,2.302661591E0,4.914580078E0,5.758905816E0
4.053998250E0,2.465223541E0,4.413571930E0,6.343658295E0,8.111654877E0
4.064030250E0,2.315385132E0,6.591991882E0,7.276219025E0,1.008755315E1
4.074061250E0,2.155517578E0,8.275540924E0,9.526489563E0,1.280175133E1
4.084093250E0,1.806293793E0,9.124126282E0,1.296064819E1,1.595276713E1
4.094125250E0,1.203946381E0,9.118288422E0,1.639211243E1,1.879611716E1
4.104157250E0,8.762777710E-1,8.936566315E0,1.896600998E1,2.098427065E1
4.114189250E0,1.465751953E0,9.306896210E0,2.031335815E1,2.239194644E1
4.124221250E0,2.745291138E0,1.022538620E1,2.036110886E1,2.294928975E1
4.134253250E0,3.923191681E0,1.078312637E1,1.968301895E1,2.278351339E1
4.144284250E0,4.499792633E0,1.081022003E1,1.855017471E1,2.193668099E1
4.154316250E0,4.498894501E0,1.042566971E1,1.751986725E1,2.087774866E1
4.164348250E0,3.887865143E0,9.787546692E0,1.677920746E1,1.981043585E1
4.174380250E0,2.854414215E0,9.124874725E0,1.614437759E1,1.876304738E1
4.184412250E0,1.853894806E0,8.354277191E0,1.513577499E1,1.738742528E1
4.194444250E0,1.358574829E0,7.463928680E0,1.370819366E1,1.566749918E1
4.204476250E0,1.297352142E0,6.520889740E0,1.189546326E1,1.362744186E1
4.214508250E0,1.522334290E0,5.571264496E0,9.784403229E0,1.136182364E1
4.224539250E0,1.761836243E0,4.823569336E0,7.677384796E0,9.236510455E0
4.234571250E0,1.739233246E0,4.321812744E0,5.560786285E0,7.254332622E0
4.244603250E0,1.468745728E0,4.110601959E0,3.743565216E0,5.750525455E0
4.254635250E0,9.710307312E-1,4.166735229E0,2.401306458E0,4.906205851E0
4.264667250E0,2.826123047E-1,4.218078461E0,1.374142456E0,4.445258497E0
4.274699250E0,-4.528083801E-1,4.144730988E0,7.240443420E-1,4.231792835E0
4.284731250E0,-1.181193695E0,4.008514252E0,3.900888062E-1,4.197091175E0
4.294763250E0,-1.975442047E0,3.728296967E0,3.800596619E-1,4.236391731E0
4.304794250E0,-2.470911713E0,3.492836609E0,5.396278381E-1,4.312367154E0
4.314826250E0,-2.674488373E0,3.062930603E0,6.409671021E-1,4.116463380E0
4.324858250E0,-2.913241882E0,2.104623413E0,8.884025574E-1,3.702117918E0
4.334890250E0,-2.892285461E0,1.233584747E0,1.571881256E0,3.515374404E0
4.344922250E0,-2.539918213E0,6.743476868E-1,2.627336426E0,3.716022877E0
4.354954250E0,-1.794767761E0,7.217990112E-1,3.443439331E0,3.949615115E0
4.364986250E0,-9.798623657E-1,1.291963348E0,3.833827515E0,4.162635339E0
4.375018250E0,-5.077441406E-1,1.985471191E0,3.867956543E0,4.377326557E0
4.385049250E0,-5.361849976E-1,2.535427551E0,3.571123810E0,4.412347729E0
4.395081250E0,-9.128018188E-1,2.890788574E0,3.194956055E0,4.404271782E0
4.405113250E0,-1.340462494E0,3.115321655E0,2.978356476E0,4.513610086E0
4.415145250E0,-1.565294952E0,3.285817108E0,3.089874573E0,4.774313273E0
4.425177250E0,-1.526974640E0,3.500470734E0,3.622317352E0,5.263661265E0
4.435209250E0,-1.324445801E0,3.791764984E0,4.401297455E0,5.958444232E0
4.445241250E0,-1.203347626E0,4.152963867E0,5.324278107E0,6.858796669E0
4.455273250E0,-1.165027313E0,4.722529449E0,6.425538025E0,8.058977103E0
4.465304250E0,-1.349443817E0,5.547463989E0,7.723488922E0,9.604563314E0
4.475336250E0,-1.891915741E0,6.539002075E0,9.087153168E0,1.135404095E1
4.485368250E0,-2.465073853E0,7.468868408E0,1.037806870E1,1.302170858E1
4.495400250E0,-2.855611725E0,8.140970764E0,1.166015259E1,1.450479513E1
4.505432250E0,-3.117866364E0,8.601413269E0,1.316197952E1,1.602944496E1
4.515464250E0,-3.016676788E0,8.864865417E0,1.486873032E1,1.757171929E1
4.525496250E0,-2.452649689E0,9.027277679E0,1.641396698E1,1.889247323E1
4.535528250E0,-1.587748260E0,9.427844696E0,1.768272858E1,2.010184295E1
4.545559250E0,-6.538403320E-1,9.836195526E0,1.834764587E1,2.082821065E1
4.555591250E0,3.547622681E-2,1.000309845E1,1.814212326E1,2.071713961E1
4.565623250E0,8.036787415E-1,9.917177124E0,1.730326767E1,1.995994423E1
4.575655250E0,1.616189117E0,9.758058014E0,1.613330063E1,1.892393069E1
4.585687250E0,2.214045868E0,9.638307037E0,1.503638168E1,1.799699241E1
4.595719250E0,2.499502258E0,9.548344116E0,1.416773804E1,1.726682333E1
4.605751250E0,2.351460114E0,9.445957031E0,1.346719482E1,1.661688314E1
4.615782250E0,1.918260956E0,9.109606476E0,1.264824783E1,1.570486640E1
4.625814250E0,1.409768372E0,8.403375092E0,1.152333710E1,1.433148484E1
4.635846250E0,9.924362183E-1,7.592361603E0,1.023002655E1,1.277819735E1
4.645878250E0,7.722441101E-1,6.886130219E0,8.891809387E0,1.127295101E1
4.655910250E0,6.709048462E-1,6.259084167E0,7.632927246E0,9.893827686E0
4.665942250E0,6.396199036E-1,5.635031891E0,6.584657135E0,8.690247846E0
4.675974250E0,5.929170227E-1,5.128634949E0,5.742059326E0,7.721767436E0
4.686006250E0,3.323089600E-1,4.702770538E0,5.011578369E0,6.880581206E0
4.696037250E0,-1.478924561E-1,4.425846405E0,4.308939514E0,6.178749737E0
4.706069250E0,-7.074288940E-1,4.226610718E0,3.675606537E0,5.645775165E0
4.716101250E0,-1.231938171E0,4.056414642E0,3.061583405E0,5.229289087E0
4.726133250E0,-1.691781921E0,3.899989929E0,2.429148560E0,4.896203656E0
4.736165250E0,-1.967508545E0,3.686982880E0,1.903591461E0,4.592231819E0
4.746197250E0,-2.001338196E0,3.432961121E0,1.590442657E0,4.280196780E0
4.756229250E0,-1.777254181E0,3.110082550E0,1.490899658E0,3.879952021E0
4.766261250E0,-1.263372803E0,2.720592499E0,1.556613007E0,3.379464223E0
4.776292250E0,-6.438111877E-1,2.314487000E0,1.810335388E0,3.008098591E0
4.786324250E0,-1.469943237E-1,1.914818115E0,2.138003998E0,2.873881842E0
4.796356250E0,2.001338196E-1,1.715133362E0,2.342478790E0,2.910144821E0
4.806388250E0,3.715274048E-1,1.695224762E0,2.530338135E0,3.068294426E0
4.816420250E0,3.504212952E-1,1.815873871E0,2.772384796E0,3.332613157E0
4.826452250E0,3.442840576E-2,2.023043060E0,3.060685272E0,3.669016609E0
4.836484250E0,-5.174739075E-1,2.188000031E0,3.275039520E0,3.972531591E0
4.846516250E0,-9.503736877E-1,2.351310425E0,3.460803223E0,4.290574531E0
4.856547250E0,-1.140178986E0,2.607876892E0,3.814068604E0,4.759007178E0
4.866579250E0,-1.221459961E0,2.904410248E0,4.265978851E0,5.303408233E0
4.876611250E0,-1.140777740E0,3.274141388E0,4.820874939E0,5.938199294E0
4.886643250E0,-8.066725159E-1,3.732039185E0,5.477259979E0,6.676766725E0
4.896675250E0,-5.101391602E-1,4.381538544E0,6.287075958E0,7.680198310E0
4.906707250E0,-3.641926575E-1,5.214107208E0,7.496710510E0,9.138939695E0
4.916739250E0,-2.597099304E-1,6.330335999E0,9.289232941E0,1.124412966E1
4.926770250E0,-2.637515259E-1,7.591164093E0,1.119836288E1,1.353139566E1
4.936802250E0,-5.745053101E-1,8.577612762E0,1.264839752E1,1.529337951E1
4.946834250E0,-1.382974091E0,8.933572540E0,1.379216904E1,1.649076294E1
4.956866250E0,-2.321222992E0,8.742270355E0,1.512784149E1,1.762574694E1
4.966898250E0,-2.509980469E0,8.657097473E0,1.646560959E1,1.877129824E1
4.976930250E0,-1.466949463E0,8.933422852E0,1.753947647E1,1.973806524E1
4.986962250E0,2.077679443E-1,9.185648346E0,1.796908310E1,2.018185449E1
4.996994250E0,1.789977722E0,9.041947174E0,1.738649460E1,1.967869466E1
5.007025250E0,2.884052582E0,8.938512268E0,1.574306213E1,1.833190569E1
5.017057250E0,3.146456909E0,9.045539703E0,1.372286316E1,1.673436443E1
5.027089250E0,2.623145142E0,9.230405273E0,1.131033005E1,1.483256005E1
5.037121250E0,1.455124054E0,9.352102203E0,8.856482849E0,1.296211750E1
5.047153250E0,5.414241028E-1,9.253756714E0,7.390581207E0,1.185520324E1
5.057185250E0,4.194277954E-1,8.618777161E0,7.379953308E0,1.135442426E1
5.067217250E0,8.881031799E-1,7.230264587E0,8.572223969E0,1.124937674E1
5.077249250E0,1.579814758E0,5.579497375E0,1.007300308E1,1.162290827E1
5.087280250E0,2.074685669E0,4.118685150E0,1.082294357E1,1.176452275E1
5.097312250E0,1.950893097E0,3.153043213E0,1.051937485E1,1.115369502E1
5.107344250E0,9.388476562E-1,2.892435150E0,9.383387146E0,9.863851700E0
5.117376250E0,-2.977308655E-1,3.245850220E0,7.776628418E0,8.432089709E0
5.127408250E0,-1.402733002E0,3.940405884E0,5.997877350E0,7.312249388E0
5.137440250E0,-2.521955566E0,4.537364502E0,4.367916870E0,6.784293205E0
5.147472250E0,-3.331472168E0,4.870272217E0,3.075354767E0,6.654026241E0
5.157503250E0,-3.721411285E0,4.845573578E0,2.323618011E0,6.536641792E0
5.167535250E0,-3.686084747E0,4.394262085E0,2.124831390E0,6.116507866E0
5.177567250E0,-3.272045746E0,3.664828949E0,2.414778442E0,5.474341012E0
5.187599250E0,-2.582878876E0,2.925965424E0,2.974913635E0,4.907407471E0
5.197631250E0,-1.633253632E0,2.251767426E0,3.343746643E0,4.349553492E0
5.207663250E0,-8.776249695E-1,1.133442993E0,3.531156921E0,3.811035005E0
5.217695250E0,1.821711731E-1,8.610095215E-1,3.800147552E0,3.900723670E0
5.227727250E0,1.003962250E0,1.289119263E0,3.896098022E0,4.224848929E0
5.237758250E0,9.979747009E-1,1.308129730E0,3.547173615E0,3.910191497E0
5.247790250E0,8.177494812E-1,1.209185486E0,3.090173950E0,3.417604248E0
5.257822250E0,5.840853882E-1,1.386566620E0,2.732567596E0,3.119398724E0
5.267854250E0,4.077520752E-1,1.496887207E0,2.558778992E0,2.992370798E0
5.277886250E0,5.496569824E-1,1.285826111E0,2.768792267E0,3.101883654E0
5.287918250E0,1.105600891E0,8.199948120E-1,3.412004700E0,3.679201122E0
5.297950250E0,1.716779938E0,3.252735901E-1,4.397854614E0,4.732257545E0
5.307982250E0,2.443967743E0,2.076182556E-1,5.398972778E0,5.930007650E0
5.318013250E0,3.218457184E0,2.863545227E-1,7.005731506E0,7.714968535E0
5.328045250E0,4.096531219E0,1.008303223E0,1.048045578E1,1.129770759E1
5.338077250E0,3.298390961E0,1.830992432E0,1.375205246E1,1.426011441E1
5.348109250E0,3.298540649E0,1.702858887E0,1.772089920E1,1.810553416E1
5.358141250E0,3.959566040E0,2.485880585E0,2.022144928E1,2.075487356E1
5.368173250E0,3.916006622E0,2.926115112E0,2.129277145E1,2.184672455E1
5.378205250E0,4.251758423E0,3.396287384E0,2.075748459E1,2.145892318E1
5.388236250E0,4.762945404E0,3.931723938E0,1.898023041E1,1.995979079E1
5.398268250E0,5.419180756E0,4.345164185E0,1.626188324E1,1.768323552E1
5.408300250E0,6.168522491E0,4.983287201E0,1.372870102E1,1.585437015E1
5.418332250E0,7.073241119E0,5.953569489E0,1.195503937E1,1.511286524E1
5.428364250E0,7.792645111E0,6.694079590E0,1.119177658E1,1.519183604E1
5.438396250E0,7.547604675E0,6.823111267E0,1.151121231E1,1.536324160E1
5.448428250E0,6.758445740E0,6.380781097E0,1.240126144E1,1.549781409E1
5.458460250E0,6.606212311E0,5.525010681E0,1.341046280E1,1.593763774E1
5.468491250E0,6.689289551E0,5.016518097E0,1.378483429E1,1.612245964E1
5.478523250E0,5.754633179E0,5.035528564E0,1.341405533E1,1.544050619E1
5.488555250E0,4.298311615E0,4.365372162E0,1.176673096E1,1.326604366E1
5.498587250E0,3.810775452E0,4.063150635E0,1.000384689E1,1.145024695E1
5.508619250E0,3.480113068E0,3.982169037E0,8.654403076E0,1.014236411E1
5.518651250E0,3.081641693E0,3.837869110E0,7.309449921E0,8.812140090E0
5.528683250E0,2.711012421E0,3.652853851E0,6.134393463E0,7.636996318E0
5.538714250E0,2.323618011E0,3.445534973E0,5.345683594E0,6.771059371E0
5.548746250E0,1.915117493E0,3.226390686E0,4.895270233E0,6.167733986E0
5.558778250E0,1.608704681E0,3.009192352E0,5.114264832E0,6.148078898E0
5.568810250E0,1.332828369E0,2.815944214E0,5.802084503E0,6.585602316E0
5.578842250E0,1.016386414E0,2.627635803E0,6.587052155E0,7.164270189E0
5.588874250E0,6.822811890E-1,2.429597626E0,7.234455872E0,7.661971287E0
5.598906250E0,2.794688416E-1,2.198328552E0,7.405250702E0,7.729714692E0
5.608938250E0,-1.547781372E-1,1.952839050E0,6.978188782E0,7.247941453E0
5.618969250E0,-5.287005615E-1,1.768422546E0,6.284231873E0,6.549687994E0
5.629001250E0,-6.956034851E-1,1.661694489E0,5.715265045E0,5.992440848E0
5.639033250E0,-5.905220032E-1,1.875150604E0,5.303171997E0,5.655841162E0
5.649065250E0,-3.239263916E-1,2.225272522E0,4.778213654E0,5.280917707E0
5.659097250E0,-1.561253357E-1,2.327060852E0,4.237837372E0,4.837236083E0
5.669129250E0,-1.053808594E-1,2.323468323E0,3.885320435E0,4.528280584E0
5.679161250E0,-4.460723877E-2,2.290686493E0,3.735332336E0,4.382002063E0
5.689192250E0,4.176315308E-2,2.114502869E0,3.543880463E0,4.126978953E0
5.699224250E0,1.911524963E-1,1.967059479E0,3.422482910E0,3.952119879E0
5.709256250E0,2.996768188E-1,1.897005157E0,3.513643341E0,4.004263265E0
5.719288250E0,2.966830444E-1,1.805844727E0,3.753744049E0,4.176085534E0
5.729320250E0,2.019300842E-1,1.788480835E0,4.186943207E0,4.557404181E0
5.739352250E0,1.874102783E-1,1.785037994E0,4.957540741E0,5.272446629E0
5.749384250E0,2.457888794E-1,1.828298035E0,6.264772339E0,6.530731838E0
5.759416250E0,3.126997375E-1,1.843416595E0,7.804919586E0,8.025754520E0
5.769447250E0,4.885839844E-1,1.990560608E0,9.198671265E0,9.424255879E0
5.779479250E0,6.698570251E-1,2.522254944E0,1.027433441E1,1.060058612E1
5.789511250E0,8.692424011E-1,3.291804657E0,1.106409210E1,1.157608286E1
5.799542625E0,1.386716309E0,3.995940399E0,1.204455322E1,1.276564860E1
5.809574625E0,2.185904388E0,4.228257294E0,1.390488464E1,1.469701176E1
5.819606625E0,2.719544678E0,4.084256744E0,1.650183426E1,1.721591154E1
5.829638625E0,2.851719818E0,3.959566040E0,1.884326523E1,1.946481733E1
5.839669625E0,3.279230804E0,3.658542023E0,2.011876282E1,2.070997107E1
5.849701625E0,4.090094604E0,3.243754578E0,2.024420197E1,2.090642320E1
5.859733625E0,5.093458099E0,2.962489471E0,1.957180023E1,2.043954558E1
5.869765625E0,6.058501282E0,2.917433167E0,1.858909378E1,1.976793519E1
5.879797625E0,6.385421448E0,3.086880798E0,1.770099060E1,1.906901960E1
5.889829625E0,5.998326416E0,3.292553101E0,1.695853455E1,1.828695490E1
5.899861625E0,5.529052277E0,3.533851318E0,1.619856491E1,1.747718597E1
5.909893625E0,4.872966614E0,3.535647583E0,1.526824951E1,1.641237492E1
5.919924625E0,3.835773468E0,2.998564453E0,1.431847458E1,1.512359948E1
5.929956625E0,2.668201447E0,2.129471741E0,1.341839630E1,1.384584083E1
5.939988625E0,1.765428772E0,1.514251099E0,1.272818161E1,1.293894517E1
5.950020625E0,1.064735870E0,1.156495056E0,1.208212509E1,1.218396036E1
5.960052625E0,3.393443298E-1,9.692344666E-1,1.119327347E1,1.124028207E1
5.970084625E0,-6.447093201E-1,1.049766998E0,1.003288651E1,1.010823785E1
5.980116625E0,-1.899400177E0,1.496438141E0,8.528215485E0,8.864395495E0
5.990148625E0,-3.105442200E0,2.139051819E0,6.725065155E0,7.710111236E0
6.000179625E0,-3.881877594E0,3.074306946E0,5.088518372E0,7.100236339E0
6.010211625E0,-4.244723053E0,4.003275146E0,3.833378448E0,6.981309048E0
6.020243625E0,-4.497696991E0,4.424798584E0,3.143163757E0,7.048943122E0
6.030275625E0,-4.581522675E0,4.462819519E0,3.014281769E0,7.070573008E0
6.040307625E0,-3.859424286E0,4.791386261E0,3.093317413E0,6.886301674E0
6.050339625E0,-2.840343475E0,4.680766296E0,3.429667969E0,6.460630508E0
6.060371625E0,-1.924398193E0,4.362378387E0,3.890409851E0,6.153774647E0
6.070402625E0,-1.427880707E0,4.035308533E0,4.228706360E0,6.017018842E0
6.080434625E0,-1.365610199E0,3.754492493E0,4.481680298E0,6.003879028E0
6.090466625E0,-1.669927368E0,3.457959137E0,4.677922211E0,6.052197536E0
6.100498625E0,-1.926793213E0,3.166066132E0,4.843627625E0,6.098953632E0
6.110530625E0,-1.867516479E0,2.871478729E0,4.938380585E0,6.010042487E0
6.120562625E0,-1.459465027E0,2.427651672E0,5.087171173E0,5.822614649E0
6.130594625E0,-8.102650452E-1,1.801204376E0,5.426814880E0,5.775048605E0
6.140625625E0,-1.453477478E-1,1.139131165E0,5.802533569E0,5.915077481E0
6.150657625E0,3.442840576E-1,6.252497864E-1,5.802832947E0,5.846566430E0
6.160689625E0,7.682025146E-1,3.050656128E-1,5.575156403E0,5.636095195E0
6.170721625E0,9.925859070E-1,2.469863892E-2,5.381758575E0,5.472582770E0
6.180753625E0,1.111438751E0,-1.161584473E-1,5.202281799E0,5.320951494E0
6.190785625E0,1.238674164E0,2.065704346E-2,5.092709656E0,5.241224288E0
6.200817625E0,1.350641327E0,5.177732849E-1,5.082680511E0,5.284502091E0
6.210849625E0,1.257385254E0,1.334325256E0,5.218298492E0,5.531010823E0
6.220880625E0,8.463400269E-1,2.236199799E0,5.630990295E0,6.117592066E0
6.230912625E0,2.664459229E-1,2.845732269E0,6.329138489E0,6.944579151E0
6.240944625E0,-4.864883423E-2,3.260968781E0,7.813900909E0,8.467191478E0
6.250976625E0,-1.892065430E-1,3.465443573E0,1.013587234E1,1.071358980E1
6.261008625E0,-3.125500488E-1,3.350332947E0,1.287861877E1,1.331094437E1
6.271040625E0,5.987548828E-3,3.125051422E0,1.552915695E1,1.584047657E1
6.281072625E0,8.164022827E-1,2.922073517E0,1.762584686E1,1.788506371E1
6.291103625E0,1.752854919E0,2.749033356E0,1.905657166E1,1.933345825E1
6.301135625E0,2.509980469E0,2.351460114E0,2.003433838E1,2.032742190E1
6.311167625E0,3.123853912E0,1.847158813E0,2.059477295E1,2.091208100E1
6.321199625E0,3.844605103E0,1.573976898E0,2.061782501E1,2.103219199E1
6.331231625E0,4.460873566E0,1.567540283E0,2.019555313E1,2.074167162E1
6.341263625E0,4.728516998E0,1.930685120E0,1.929547485E1,1.996000420E1
6.351295625E0,4.361929321E0,2.489772491E0,1.802821014E1,1.871474700E1
6.361327625E0,3.550766144E0,3.155737610E0,1.668460419E1,1.734769832E1
6.371358625E0,2.539618835E0,3.761228485E0,1.550221298E1,1.615286696E1
6.381390625E0,1.461410980E0,4.181853790E0,1.442101135E1,1.508605951E1
6.391422625E0,6.053411865E-1,4.461322632E0,1.334729416E1,1.408616694E1
6.401454625E0,1.468446350E-1,4.526287537E0,1.226145218E1,1.307103866E1
6.411486625E0,-2.290237427E-2,4.386178894E0,1.118429214E1,1.201363728E1
6.421518625E0,-2.260299683E-2,4.150718536E0,1.019739441E1,1.100980599E1
6.431550625E0,5.254074097E-2,3.892505493E0,9.257798309E0,1.004296715E1
6.441581625E0,1.112187195E-1,3.664679260E0,8.379275208E0,9.146283217E0
6.451613625E0,1.079255676E-1,3.493135986E0,7.573800201E0,8.341228713E0
6.461645625E0,1.486408997E-1,3.383414154E0,6.789281616E0,7.587089713E0
6.471677625E0,2.465373230E-1,3.345542908E0,5.988297272E0,6.863901384E0
6.481709625E0,3.721261597E-1,3.358266449E0,5.249733124E0,6.243086520E0
6.491741625E0,4.535568237E-1,3.444187775E0,4.655468903E0,5.808746330E0
6.501773625E0,5.165757751E-1,3.517834625E0,4.232448578E0,5.527714894E0
6.511805625E0,5.342390442E-1,3.553759918E0,3.942501526E0,5.334598316E0
6.521836625E0,5.541476440E-1,3.502865753E0,3.905079346E0,5.275110690E0
6.531868625E0,6.884184265E-1,3.370840302E0,4.123026123E0,5.369900249E0
6.541900625E0,9.065148926E-1,3.230731659E0,4.412075043E0,5.543086007E0
6.551932625E0,1.153950348E0,3.176843719E0,4.452191620E0,5.589807478E0
6.561964625E0,1.270108795E0,3.323089600E0,4.487368469E0,5.726480299E0
6.571996625E0,1.204694824E0,3.473676453E0,4.700824585E0,5.967869762E0
6.582028625E0,1.020428009E0,3.622916107E0,5.138664093E0,6.369667425E0
6.592059625E0,9.006770325E-1,3.810176697E0,5.848937073E0,7.038375555E0
6.602091625E0,8.921447754E-1,3.962110748E0,6.985224152E0,8.080074278E0
6.612123625E0,9.439370728E-1,3.870800629E0,8.399034119E0,9.296122247E0
6.622155625E0,1.154998169E0,3.591182098E0,9.778415680E0,1.048084075E1
6.632187625E0,1.451830902E0,3.259022827E0,1.090691895E1,1.147562302E1
6.642219625E0,1.728755035E0,2.902763672E0,1.174966644E1,1.222576347E1
6.652251625E0,1.780098267E0,2.636766815E0,1.230980164E1,1.271426386E1
6.662282625E0,1.695673828E0,2.481090546E0,1.244092896E1,1.279874343E1
6.672314625E0,1.544937286E0,2.490670624E0,1.230022156E1,1.264459259E1
6.682346625E0,1.278191986E0,2.585573273E0,1.216460358E1,1.250186162E1
6.692378625E0,9.476792908E-1,2.719095612E0,1.208751389E1,1.242576231E1
6.702410625E0,6.798861694E-1,2.862198029E0,1.203422470E1,1.238858293E1
6.712442625E0,5.694158936E-1,2.904260559E0,1.190728867E1,1.226957567E1
6.722474625E0,5.927673340E-1,2.838846588E0,1.162542480E1,1.198169124E1
6.732506625E0,7.753875732E-1,2.688110046E0,1.129730713E1,1.163856992E1
6.742537625E0,1.024319916E0,2.449655914E0,1.104553070E1,1.136018459E1
6.752569625E0,1.263073425E0,2.210453339E0,1.078507233E1,1.108148201E1
6.762601625E0,1.519789581E0,2.019450531E0,1.049692154E1,1.079691172E1
6.772633625E0,1.766177216E0,1.871707764E0,1.018811371E1,1.050810796E1
6.782665625E0,1.925146637E0,1.798060913E0,9.724976807E0,1.007543481E1
6.792698625E0,2.013313293E0,1.755699005E0,9.116791534E0,9.500094594E0
6.802730625E0,2.054777069E0,1.809287567E0,8.563991089E0,8.990971787E0
6.812761625E0,2.024539948E0,1.944007416E0,8.171507263E0,8.640107510E0
6.822793625E0,1.972747650E0,2.097138977E0,7.881111145E0,8.390568399E0
6.832825625E0,1.918111267E0,2.191891937E0,7.645650787E0,8.181657354E0
6.842857625E0,1.904190216E0,2.240690460E0,7.479047241E0,8.036341316E0
6.852889625E0,1.874252472E0,2.277663574E0,7.432194672E0,7.996129772E0
6.862921625E0,1.806892548E0,2.291434937E0,7.362290039E0,7.919523304E0
6.872953625E0,1.776356049E0,2.316882019E0,7.290140076E0,7.852994679E0
6.882984625E0,1.711241455E0,2.343376923E0,7.244784393E0,7.804272139E0
6.893016625E0,1.573078766E0,2.364632721E0,7.186854858E0,7.727674130E0
6.903048625E0,1.462159424E0,2.368824005E0,7.116650848E0,7.641724717E0
6.913080625E0,1.381776581E0,2.419119415E0,7.136559448E0,7.661065593E0
6.923112625E0,1.178948364E0,2.421065369E0,7.300019531E0,7.780858688E0
6.933144625E0,9.267228699E-1,2.374661865E0,7.475454712E0,7.898117333E0
6.943176625E0,7.825726318E-1,2.324516144E0,7.646848297E0,8.030571842E0
6.953208625E0,7.069798279E-1,2.225571899E0,7.914192352E0,8.251510852E0
6.963239625E0,6.530918884E-1,2.101779327E0,8.322692871E0,8.608787486E0
6.973271625E0,5.608836365E-1,1.987566833E0,8.565038910E0,8.810499640E0
6.983303625E0,4.501139832E-1,1.948647766E0,8.582103424E0,8.812055940E0
6.993335625E0,2.487826538E-1,1.863325195E0,8.517437897E0,8.722420645E0
7.003367625E0,-5.987548828E-3,1.658401337E0,8.556207275E0,8.715446849E0
7.013399625E0,-2.195933533E-1,1.496887207E0,8.830437012E0,8.959102096E0
7.023431625E0,-4.150868225E-1,1.315015411E0,9.161997528E0,9.265190840E0
7.033462625E0,-6.185137939E-1,1.158740387E0,9.465117188E0,9.555819273E0
7.043494625E0,-8.053253174E-1,1.200353851E0,9.732311554E0,9.839069388E0
7.053526625E0,-8.891510010E-1,1.229243774E0,9.881401520E0,9.997185892E0
7.063558625E0,-9.042695618E-1,1.136137390E0,1.010668304E1,1.021046296E1
7.073590625E0,-7.333250427E-1,8.684939575E-1,1.045381119E1,1.051542751E1
7.083622625E0,-5.578898621E-1,5.346881104E-1,1.092353439E1,1.095083267E1
7.093654625E0,-5.779481506E-1,2.891986084E-1,1.144295425E1,1.146118938E1
7.103685625E0,-7.861651611E-1,2.254312134E-1,1.182630707E1,1.185455245E1
7.113717625E0,-1.118773499E0,3.296145630E-1,1.214439560E1,1.220027231E1
7.123749625E0,-1.497036896E0,4.285588074E-1,1.251337830E1,1.260989368E1
7.133781625E0,-1.779200134E0,4.534071350E-1,1.289283920E1,1.302291956E1
7.143813625E0,-1.861379242E0,4.011657715E-1,1.347437988E1,1.360825411E1
7.153845625E0,-1.835632782E0,2.221380615E-1,1.420366333E1,1.432351022E1
7.163877625E0,-1.762884064E0,-9.669891357E-2,1.480406479E1,1.490897197E1
7.173909625E0,-1.636995850E0,-4.489164734E-1,1.510972916E1,1.520477545E1
7.183940625E0,-1.509610748E0,-7.273374939E-1,1.502335876E1,1.511652252E1
7.193972625E0,-1.403780823E0,-8.809181213E-1,1.450319046E1,1.459757346E1
7.204004625E0,-1.288520508E0,-9.072633362E-1,1.373843079E1,1.382851736E1
7.214036625E0,-1.173260193E0,-9.060658264E-1,1.296004944E1,1.304455351E1
7.224068625E0,-1.074465637E0,-8.909472656E-1,1.220472015E1,1.228427684E1
7.234100625E0,-9.756710815E-1,-8.406518555E-1,1.151959488E1,1.159136298E1
7.244132625E0,-9.122030640E-1,-7.842192078E-1,1.093446167E1,1.100043482E1
7.254163625E0,-8.032296753E-1,-7.707472229E-1,1.045126648E1,1.051038535E1
7.264195625E0,-6.185137939E-1,-7.220983887E-1,1.003842499E1,1.008335071E1
7.274227625E0,-4.788542175E-1,-6.625222778E-1,9.766889648E0,9.801039258E0
7.284259625E0,-3.905378723E-1,-5.839356995E-1,9.585466919E0,9.611174579E0
7.294291625E0,-3.947291565E-1,-4.381388855E-1,9.424102478E0,9.442535904E0
7.304323625E0,-4.255650330E-1,-2.330653381E-1,9.303004303E0,9.315648883E0
7.314355625E0,-5.370831299E-1,4.221221924E-2,9.155261536E0,9.171098841E0
7.324386625E0,-6.047424316E-1,2.989283752E-1,8.997639313E0,9.022892263E0
7.334418625E0,-6.270460510E-1,5.245092773E-1,8.833281097E0,8.871028784E0
7.344450625E0,-5.953120422E-1,7.132667542E-1,8.704099731E0,8.753542027E0
7.354482625E0,-5.522016907E-1,8.336164856E-1,8.577912140E0,8.635995590E0
7.364514625E0,-4.616400146E-1,9.062155151E-1,8.489895172E0,8.550594020E0
7.374546625E0,-3.893403625E-1,9.509724426E-1,8.324189758E0,8.387375611E0
7.384578625E0,-3.743714905E-1,9.928852844E-1,8.156837769E0,8.225568526E0
7.394609625E0,-3.082090759E-1,1.001267853E0,7.989186401E0,8.057582113E0
7.404641625E0,-2.564167786E-1,9.916877747E-1,7.872728577E0,7.939083666E0
7.414673625E0,-2.975811768E-1,9.750723267E-1,7.729476471E0,7.796417582E0
7.424705625E0,-3.459306335E-1,1.000070343E0,7.515271912E0,7.589408449E0
7.434737625E0,-4.715194702E-1,9.966275024E-1,7.360044708E0,7.442167366E0
7.444769625E0,-6.007008362E-1,9.454339600E-1,7.370672607E0,7.455300232E0
7.454801625E0,-7.191046143E-1,8.336164856E-1,7.654482422E0,7.733248285E0
7.464832625E0,-9.586065674E-1,6.852749634E-1,8.068072357E0,8.153669106E0
7.474864625E0,-1.141975250E0,5.427713013E-1,8.247249756E0,8.343610531E0
7.484896625E0,-1.233884125E0,4.776567078E-1,7.978857880E0,8.087817940E0
7.494928625E0,-1.299597473E0,4.453239441E-1,7.435338135E0,7.561185105E0
7.504960625E0,-1.302740936E0,4.111949158E-1,6.793323212E0,6.929318543E0
7.514992625E0,-1.245709534E0,4.123924255E-1,6.289770355E0,6.425190338E0
7.525024625E0,-1.131347351E0,4.556524658E-1,5.955964508E0,6.079562420E0
7.535055625E0,-1.014440460E0,4.469705200E-1,5.790708160E0,5.895860674E0
7.545087625E0,-8.680448914E-1,3.876937866E-1,5.901926880E0,5.978005462E0
7.555119625E0,-6.483018494E-1,5.017565918E-1,6.243666229E0,6.297255192E0
7.565151625E0,-6.536906433E-1,6.179150391E-1,7.032226410E0,7.089523167E0
7.575183625E0,-9.196875000E-1,5.210664368E-1,8.569978638E0,8.634921492E0
7.585215625E0,-1.355880432E0,9.924362183E-2,1.127335693E1,1.135503578E1
7.595247625E0,-1.730850677E0,-6.020480347E-1,1.405666901E1,1.417562166E1
7.605279625E0,-1.692530365E0,-1.496887207E0,1.682336563E1,1.697442080E1
7.615310625E0,-2.128274231E0,-2.625540161E0,1.966805008E1,1.995633249E1
7.625342625E0,-2.598296814E0,-3.580853577E0,2.171609116E1,2.216218116E1
7.635374625E0,-2.954106903E0,-3.982618103E0,2.311104034E1,2.363700870E1
7.645406625E0,-2.842289429E0,-3.321592712E0,2.360186966E1,2.400332974E1
7.655438625E0,-2.013762360E0,-2.077230377E0,2.247067200E1,2.265615203E1
7.665470625E0,-9.410929871E-1,-8.631051636E-1,2.050735474E1,2.054707290E1
7.675502625E0,3.821553040E-1,-1.767823792E-1,1.855032440E1,1.855510254E1
7.685533625E0,1.905986481E0,8.187973022E-2,1.638896896E1,1.649963007E1
7.695565625E0,3.036585388E0,2.713856506E-1,1.426773010E1,1.458981231E1
7.705597625E0,3.470682678E0,6.153703308E-1,1.269210663E1,1.317246710E1
7.715629625E0,3.294499054E0,1.293160858E0,1.159384048E1,1.212200999E1
7.725661625E0,2.786305847E0,2.218237152E0,1.079674805E1,1.136898609E1
7.735693625E0,2.199675751E0,3.288810883E0,1.029559021E1,1.102968849E1
7.745725625E0,1.834285583E0,4.337829437E0,1.003423370E1,1.108454843E1
7.755756625E0,1.693578186E0,4.894072723E0,1.010803024E1,1.135748345E1
7.765788625E0,1.915416870E0,5.103487244E0,1.036309982E1,1.170932286E1
7.775820625E0,2.778971100E0,5.070406036E0,1.057715469E1,1.205437262E1
7.785852625E0,3.774999847E0,4.739593964E0,1.022358994E1,1.188428231E1
7.795884500E0,4.669988708E0,4.185146942E0,9.294172668E0,1.121186403E1
7.805916500E0,5.667364655E0,3.817062378E0,7.922874298E0,1.046235750E1
7.815948500E0,6.271807709E0,3.909719696E0,6.415209503E0,9.786541422E0
7.825979500E0,6.423592072E0,3.657793579E0,5.232668610E0,9.056644508E0
7.836011500E0,6.172264709E0,3.400179291E0,4.096680908E0,8.151126629E0
7.846043500E0,5.716761932E0,3.647165680E0,3.182681580E0,7.490837505E0
7.856075500E0,5.161865845E0,3.436853027E0,2.182461548E0,6.574188630E0
7.866107500E0,4.697531433E0,3.010389862E0,1.315314789E0,5.732303349E0
7.876139500E0,4.233346710E0,2.885100403E0,8.454418945E-1,5.192282802E0
7.886171500E0,3.563639374E0,3.052751770E0,8.601113892E-1,4.770598553E0
7.896203500E0,2.259551239E0,3.007994843E0,6.670129395E-1,3.820799790E0
7.906234500E0,1.051712952E0,2.492017822E0,4.978646851E-1,2.750294930E0
7.916266500E0,3.543132019E-1,1.782044220E0,6.984475708E-1,1.946547830E0
7.926298500E0,2.164498901E-1,1.173858948E0,1.362616425E0,1.811496316E0
7.936330500E0,4.182302856E-1,8.387059021E-1,2.384840698E0,2.562383523E0
7.946362500E0,4.224215698E-1,6.888674927E-1,3.300486603E0,3.397968543E0
7.956394500E0,1.905537415E-1,5.815406799E-1,3.779191132E0,3.828418198E0
7.966426500E0,-3.502716064E-1,5.319937134E-1,4.067042542E0,4.116617853E0
7.976457500E0,-1.174457703E0,7.924520874E-1,4.075275421E0,4.314533690E0
7.986489500E0,-1.741628265E0,1.303938446E0,4.053271179E0,4.600275181E0
7.996521500E0,-1.820963287E0,1.345402222E0,4.578229523E0,5.107465124E0
8.006553500E0,-1.629062347E0,2.460882568E-1,6.518345032E0,6.723334404E0
8.016585500E0,-3.683839417E-1,3.713777161E-1,1.094748459E1,1.095997477E1
8.026617500E0,1.725611572E0,2.599494324E0,1.764710266E1,1.792080741E1
8.036649500E0,-7.409591675E-2,2.046544189E0,1.962628693E1,1.973283993E1
8.046680500E0,-1.677860870E0,1.505120087E0,1.998374359E1,2.011046025E1
8.056712500E0,-3.372486877E0,2.490371246E0,2.124187729E1,2.165162736E1
8.066744500E0,-7.188800812E0,2.714904327E0,2.179153427E1,2.310672042E1
8.076776500E0,-1.068208649E1,2.394869843E0,2.270119263E1,2.520290697E1
8.086808500E0,-1.179127991E1,1.462758179E0,2.283860687E1,2.574443449E1
8.096840500E0,-1.083312241E1,5.298980713E-2,2.173764633E1,2.428754037E1
8.106872500E0,-8.827892303E0,-9.797126770E-1,2.016112473E1,2.203094346E1
8.116903500E0,-6.806795197E0,-1.014739838E0,1.748603760E1,1.879158505E1
8.126935500E0,-2.650538177E0,1.228794708E0,1.374905869E1,1.405602731E1
8.136967500E0,8.283773804E-1,2.504441986E0,1.041100021E1,1.073998902E1
8.146999500E0,3.152444458E-1,1.113983459E0,7.585475922E0,7.673316308E0
8.157031500E0,1.541793823E-1,8.840615845E-1,6.633305969E0,6.693734701E0
8.167063500E0,-1.043330383E-1,1.324745178E-1,7.394473114E0,7.396395576E0
8.177095500E0,-1.043031006E0,-1.290017395E0,8.640931091E0,8.798735630E0
8.187126500E0,-2.561174011E0,-2.375410309E0,9.630822601E0,1.024475136E1
8.197158500E0,-4.101920013E0,-2.593806152E0,1.061831909E1,1.167485668E1
8.207190500E0,-4.365671539E0,-2.226020966E0,1.096649506E1,1.201158903E1
8.217222500E0,-4.064198456E0,-1.766626282E0,1.023107437E1,1.114959911E1
8.227254500E0,-4.766687622E0,-1.349743195E0,8.731343079E0,1.003889782E1
8.237286500E0,-5.676795044E0,-6.638694763E-1,6.777306519E0,8.865585615E0
8.247318500E0,-6.516249390E0,4.326004028E-2,4.648283844E0,8.004368822E0
8.257349500E0,-6.674320679E0,7.259902954E-1,2.808010712E0,7.277262026E0
8.267381500E0,-6.025719452E0,1.388213196E0,1.334924011E0,6.326013982E0
8.277413500E0,-5.119054871E0,1.564696198E0,8.951385498E-2,5.353597827E0
8.287445500E0,-4.176315308E0,1.498833160E0,-1.196611633E0,4.595649007E0
8.297477500E0,-3.263962555E0,1.500330048E0,-2.128573608E0,4.175555941E0
8.307509500E0,-2.286944275E0,1.510508881E0,-3.342698822E0,4.322659668E0
8.317541500E0,-1.322948914E0,1.483714600E0,-4.981940002E0,5.363891221E0
8.327572500E0,-9.702822876E-1,1.577419739E0,-6.255341949E0,6.523726209E0
8.337604500E0,-8.174501038E-1,2.267335052E0,-6.891968079E0,7.301250366E0
8.347636500E0,-3.644920349E-1,3.322939911E0,-6.712191925E0,7.498553496E0
8.357668500E0,1.589694214E-1,4.271517334E0,-6.054908752E0,7.411683453E0
8.367700500E0,5.408253479E-1,4.679718475E0,-5.416486359E0,7.178480448E0
8.377732500E0,-5.089416504E-2,4.330494690E0,-4.874912567E0,6.520778099E0
8.387764500E0,-1.264720001E0,3.731739807E0,-4.163142700E0,5.732116172E0
8.397796500E0,-2.096689911E0,3.219055939E0,-2.607427826E0,4.642963449E0
8.407827500E0,-2.330054626E0,3.628753967E0,-1.930984497E-1,4.316746104E0
8.417859500E0,-2.774330750E0,4.365521851E0,2.560874634E0,5.771721669E0
8.427891500E0,-3.715872803E0,5.807024231E0,5.837710419E0,9.033720387E0
8.437923500E0,-4.822222137E0,7.796836395E0,1.034708313E1,1.382413156E1
8.447955500E0,-6.155948639E0,8.865314484E0,1.590173218E1,1.921860013E1
8.457987500E0,-9.999954987E0,7.532037048E0,2.049178711E1,2.401341335E1
8.468019500E0,-1.337857910E1,5.033732300E0,3.200449631E1,3.505157091E1
8.478050500E0,-1.438463699E1,3.898792419E0,3.674813187E1,3.965530935E1
8.488082500E0,-2.000215530E1,1.310524750E0,3.883389450E1,4.370211727E1
8.498114500E0,-2.156370804E1,-5.412744141E-1,3.847194717E1,4.410643039E1
8.508146500E0,-2.030048492E1,-7.200027466E-1,3.300067474E1,3.875142095E1
8.518178500E0,-1.792178146E1,-3.573069763E-1,2.769391022E1,3.298894636E1
8.528210500E0,-1.414004562E1,4.632865906E-1,2.289758423E1,2.691569966E1
8.538242500E0,-1.073328003E1,1.745669861E0,1.941911774E1,2.225652257E1
8.548273500E0,-8.239915009E0,2.895578613E0,1.735955063E1,1.943282205E1
8.558305500E0,-6.566095734E0,3.462599487E0,1.591655136E1,1.756245472E1
8.568337500E0,-5.303920441E0,3.351380768E0,1.473326202E1,1.601350477E1
8.578369500E0,-4.121229858E0,2.534529419E0,1.346465012E1,1.430752172E1
8.588401500E0,-2.933449860E0,1.344055023E0,1.194486053E1,1.237300712E1
8.598433500E0,-6.197113037E-2,4.523593140E-1,9.993368683E0,1.000379363E1
8.608465500E0,9.804611206E-1,-2.935395813E-1,8.662186890E0,8.722439521E0
8.618496500E0,5.911207581E-1,-7.381150818E-1,6.345903625E0,6.415974630E0
8.628528500E0,-2.724334717E-1,-3.784130859E-1,3.783681793E0,3.812304339E0
8.638560500E0,-1.445693665E0,2.538720703E-1,1.707050171E0,2.251333268E0
8.648592500E0,-2.432741089E0,5.673202515E-1,-1.773811340E-1,2.504305401E0
8.658624500E0,-2.943179626E0,7.806266785E-1,-1.910626831E0,3.594743275E0
8.668656500E0,-2.994373169E0,9.698332214E-1,-3.219804382E0,4.502664479E0
8.678688500E0,-2.896177368E0,1.012644196E0,-3.966900787E0,5.014937036E0
8.688719500E0,-2.830913086E0,1.197360077E0,-4.351600800E0,5.327679567E0
8.698751500E0,-2.858455811E0,1.434916077E0,-4.474794617E0,5.500321866E0
8.708783500E0,-2.490970001E0,1.476978607E0,-4.558769989E0,5.400813010E0
8.718815500E0,-1.661694489E0,1.218915253E0,-4.571343842E0,5.014396024E0
8.728847500E0,-5.652246094E-1,1.278042297E0,-4.532574463E0,4.743111029E0
8.738879500E0,2.529739380E-2,1.136287079E0,-4.669090576E0,4.805433913E0
8.748911500E0,3.113525391E-1,6.319857788E-1,-5.007836151E0,5.057150319E0
8.758942500E0,5.013075256E-1,8.559201050E-1,-4.582420807E0,4.688548700E0
8.768974500E0,9.765692139E-1,1.498234406E0,-4.089346161E0,4.463311079E0
8.779006500E0,1.438957672E0,1.727258148E0,-4.077969818E0,4.656592932E0
8.789038500E0,1.521585846E0,1.637594604E0,-3.900738373E0,4.495853582E0
8.799070208E0,1.223705292E0,1.730700989E0,-3.460204468E0,4.057806737E0
8.809102208E0,6.861730957E-1,2.595752106E0,-2.883902893E0,3.940261211E0
8.819134208E0,2.155517578E-2,3.990401917E0,-2.195783844E0,4.554694147E0
8.829165208E0,-5.360353088E-1,6.054609375E0,-9.767189026E-1,6.156265780E0
8.839197208E0,-1.181343384E0,8.656648407E0,2.155367889E0,8.998819065E0
8.849229208E0,-3.013233948E0,1.122216339E1,9.037157135E0,1.472028325E1
8.859261208E0,-6.258934479E0,1.162961609E1,1.690195221E1,2.144990023E1
8.869293208E0,-1.080093933E1,1.037148239E1,1.853086487E1,2.382479570E1
8.879325208E0,-1.329280746E1,1.224962677E1,2.166370010E1,2.821467683E1
8.889357209E0,-1.492052261E1,1.408451111E1,2.445958603E1,3.192595804E1
8.899388209E0,-1.670645874E1,1.278506332E1,2.453922043E1,3.232239080E1
8.909420208E0,-1.741942612E1,1.021386017E1,2.529095718E1,3.236343401E1
8.919452208E0,-1.461575638E1,9.454638977E0,2.569376953E1,3.103514662E1
8.929484208E0,-1.159967834E1,1.020457947E1,2.260973282E1,2.738404641E1
8.939516208E0,-8.955876160E0,1.004321503E1,1.959455292E1,2.377015755E1
8.949548208E0,-6.486311646E0,9.807754669E0,1.662862061E1,2.036603333E1
8.959580208E0,-3.552113342E0,1.017299515E1,1.443074112E1,1.800982034E1
8.969611208E0,-5.899232483E-1,1.017404297E1,1.283745438E1,1.639083264E1
8.979643208E0,1.230740662E0,9.015751648E0,1.131811386E1,1.452233458E1
8.989675208E0,1.729653168E0,7.150031433E0,9.938881989E0,1.236511321E1
8.999707208E0,1.700014801E0,5.361101532E0,9.305099945E0,1.087273401E1
9.009739209E0,1.354383545E0,4.165088654E0,9.146429901E0,1.014098113E1
9.019771209E0,5.216651917E-1,3.462749176E0,8.854087830E0,9.521430445E0
9.029803208E0,-7.593708801E-1,2.999911652E0,7.904612274E0,8.488757816E0
9.039834208E0,-1.843865662E0,2.752625885E0,6.443650360E0,7.245510320E0
9.049866208E0,-2.641407166E0,2.561323700E0,4.903802490E0,6.130635348E0
9.059898208E0,-3.178190918E0,2.301913147E0,3.470383301E0,5.238631682E0
9.069930208E0,-3.474873962E0,1.924547882E0,2.047741699E0,4.468990901E0
9.079962208E0,-3.437900848E0,1.594334564E0,3.869453430E-1,3.809303302E0
9.089994208E0,-3.158282318E0,1.298849030E0,-1.241667938E0,3.633661414E0
9.100026208E0,-2.651286621E0,1.148561554E0,-2.641257477E0,3.914684591E0
9.110057208E0,-2.153871002E0,1.187929688E0,-3.852837982E0,4.571071839E0
9.120089208E0,-1.713337097E0,1.123264160E0,-4.948260040E0,5.355606764E0
9.130121208E0,-1.113384705E0,1.090182953E0,-5.820645905E0,6.025615580E0
9.140153209E0,-6.277944946E-1,1.045875092E0,-6.397246857E0,6.512507043E0
9.150185208E0,-3.710783386E-1,9.740245056E-1,-6.616391144E0,6.697988850E0
9.160217208E0,-1.951940918E-1,1.056652679E0,-6.391109619E0,6.480809963E0
9.170249208E0,1.184037781E-1,1.215771790E0,-5.943390656E0,6.067620043E0
9.180280208E0,4.028123474E-1,1.323996735E0,-5.518723755E0,5.689599021E0
9.190312208E0,6.450086975E-1,1.309776306E0,-5.210215302E0,5.410905070E0
9.200344208E0,9.175918579E-1,1.216969299E0,-4.967869263E0,5.196413581E0
9.210376208E0,1.170116730E0,1.324296112E0,-4.744683380E0,5.063097247E0
9.220408208E0,1.345851288E0,1.587448883E0,-4.551884308E0,5.005093445E0
9.230440208E0,1.403780823E0,1.839075623E0,-4.472399597E0,5.035390541E0
9.240472208E0,1.138083344E0,2.042502594E0,-4.467310181E0,5.042212887E0
9.250504208E0,9.277706909E-1,2.610720978E0,-4.608915710E0,5.377613458E0
9.260535209E0,1.140178986E0,3.620221710E0,-4.906197510E0,6.202966013E0
9.270567208E0,1.005309448E0,5.013674011E0,-5.238656158E0,7.320593728E0
9.280599208E0,1.742376709E-1,6.568490753E0,-5.451363831E0,8.537727868E0
9.290631208E0,-1.761536865E0,8.450377350E0,-4.930896149E0,9.941107902E0
9.300663208E0,-5.307512970E0,1.041593994E1,-3.096610565E0,1.209340712E1
9.310695208E0,-1.049512527E1,1.165925446E1,9.342073059E-1,1.571491687E1
9.320727208E0,-1.673639648E1,1.330044159E1,7.362290039E0,2.260999842E1
9.330758208E0,-2.358121262E1,1.650722305E1,1.459929062E1,3.227539756E1
9.340790208E0,-3.165991287E1,1.904489594E1,2.200124817E1,4.300131469E1
9.350822208E0,-3.937082794E1,1.846814529E1,2.950334747E1,5.255075637E1
9.360854208E0,-4.160807556E1,1.700942871E1,3.269186691E1,5.558156870E1
9.370886208E0,-3.899555832E1,1.548589691E1,2.907598618E1,5.104781625E1
9.380918209E0,-3.186154358E1,1.376417725E1,2.411485291E1,4.226271010E1
9.390950208E0,-2.388807449E1,1.202898560E1,1.853790024E1,3.254213181E1
9.400981208E0,-1.721300537E1,1.050440598E1,1.516481461E1,2.523096710E1
9.411013208E0,-1.198707275E1,9.211544495E0,1.317964279E1,2.005605767E1
9.421045208E0,-8.669371948E0,7.989036713E0,1.169338348E1,1.660475639E1
9.431077208E0,-6.654711456E0,6.800807648E0,1.030621811E1,1.402691345E1
9.441109208E0,-4.919220428E0,5.671106873E0,8.908873901E0,1.165024536E1
9.451141208E0,-3.243305511E0,4.584217072E0,7.808811493E0,9.618295781E0
9.461173208E0,-2.128274231E0,3.681145020E0,7.166646881E0,8.333139107E0
9.471204208E0,-1.741179199E0,3.203338623E0,6.797215118E0,7.713314249E0
9.481236208E0,-1.923350372E0,3.100203094E0,6.207291870E0,7.200070017E0
9.491268208E0,-2.435435486E0,3.298241272E0,4.981341248E0,6.451627866E0
9.501300209E0,-3.067570953E0,3.489393768E0,3.168610840E0,5.623695856E0
9.511332209E0,-3.512146454E0,3.483855286E0,9.502239990E-1,5.037394764E0
9.521364208E0,-3.680246887E0,3.472928009E0,-1.521286469E0,5.283915085E0
9.531396208E0,-3.827091522E0,3.462599487E0,-3.907324677E0,6.473284395E0
9.541427208E0,-3.846251678E0,3.327280884E0,-5.834566956E0,7.739936796E0
9.551459208E0,-3.577261047E0,3.120710449E0,-7.108567657E0,8.547945043E0
9.561491208E0,-3.025807800E0,2.917433167E0,-7.707172852E0,8.778806439E0
9.571523208E0,-2.421215057E0,2.714305573E0,-7.648345184E0,8.469174762E0
9.581555208E0,-1.837279358E0,2.496807861E0,-6.948101349E0,7.608269007E0
9.591587208E0,-1.251547394E0,2.299967194E0,-5.898633728E0,6.453688854E0
9.601619208E0,-7.069798279E-1,2.018253021E0,-4.894821167E0,5.341576546E0
9.611650208E0,-2.258802795E-1,1.708097992E0,-4.017196198E0,4.371096652E0
9.621682208E0,2.183958435E-1,1.322200470E0,-3.281476135E0,3.544572817E0
9.631714209E0,6.044430542E-1,1.015488281E0,-2.669848022E0,2.919701409E0
9.641746208E0,9.851014709E-1,9.053173828E-1,-2.178270264E0,2.556342272E0
9.651778208E0,1.255289612E0,8.199948120E-1,-1.816622314E0,2.355474503E0
9.661810208E0,1.318458252E0,9.246272278E-1,-1.665287018E0,2.316559631E0
9.671842208E0,1.261277161E0,1.098715210E0,-1.585053864E0,2.304428549E0
9.681873208E0,1.125958557E0,1.372346191E0,-1.575922852E0,2.373741683E0
9.691905208E0,1.227746887E0,1.790576477E0,-1.687740326E0,2.749907989E0
9.701937208E0,1.287322998E0,2.325414276E0,-1.789079590E0,3.203990923E0
9.711969208E0,1.087937622E0,2.863395538E0,-1.933828583E0,3.622476400E0
9.722001208E0,9.509724426E-1,3.917503510E0,-2.189945984E0,4.587705935E0
9.732033208E0,6.580316162E-1,5.908064117E0,-2.107916565E0,6.307260853E0
9.742065208E0,-4.125421143E-1,8.344697113E0,-1.365610199E0,8.465757622E0
9.752096209E0,-2.769840088E0,1.059227325E1,1.174757080E0,1.101128153E1
9.762128208E0,-6.626719666E0,1.174652298E1,6.334676971E0,1.490041436E1
9.772160208E0,-1.183858154E1,1.277653107E1,1.264121246E1,2.152189610E1
9.782192208E0,-1.783645889E1,1.482097961E1,1.874821289E1,2.982106955E1
9.792224208E0,-2.420885742E1,1.594259720E1,2.451766525E1,3.796512996E1
9.802256083E0,-2.788655960E1,1.449016754E1,2.878708694E1,4.261832395E1
9.812288083E0,-2.702734634E1,1.259495865E1,3.080593872E1,4.287325850E1
9.822319083E0,-2.432067490E1,1.158021881E1,2.702061035E1,3.815376887E1
9.832351083E0,-1.852936798E1,1.096649506E1,2.479339188E1,3.283768829E1
9.842383083E0,-1.376103378E1,9.668544159E0,2.127840134E1,2.712226319E1
9.852415083E0,-9.782307587E0,8.310268707E0,1.832534225E1,2.237347261E1
9.862447083E0,-6.433321838E0,7.440726929E0,1.597208588E1,1.875792031E1
9.872479083E0,-4.243226166E0,6.649622040E0,1.332528992E1,1.548501834E1
9.882511084E0,-2.349214783E0,5.794151001E0,1.085348007E1,1.252553494E1
9.892542084E0,-1.034349060E0,5.099445648E0,8.727750549E0,1.016109510E1
9.902574083E0,-1.475930786E-1,4.740791473E0,6.994953918E0,8.451406264E0
9.912606083E0,3.969744873E-1,4.547243958E0,5.464686127E0,7.120239520E0
9.922638083E0,5.158273315E-1,4.302802277E0,4.198618927E0,6.033952781E0
9.932670083E0,2.671943665E-1,4.077520752E0,3.229983215E0,5.208681204E0
9.942702083E0,-5.403762817E-1,4.181554413E0,2.361938324E0,4.832820758E0
9.952734083E0,-1.501527557E0,4.453838196E0,1.433269501E0,4.913809229E0
9.962765083E0,-2.235301666E0,4.633614349E0,1.863624573E-1,5.147978870E0
9.972797083E0,-2.811453552E0,4.685406647E0,-1.389710083E0,5.638138047E0
9.982829083E0,-3.290457458E0,4.501738586E0,-3.179089050E0,6.418673366E0
9.992861083E0,-3.652404785E0,4.329446869E0,-4.770429840E0,7.405482548E0
1.000289308E1,-3.686533813E0,4.252806244E0,-5.939947815E0,8.182901231E0
1.001292508E1,-3.450624390E0,4.186344452E0,-6.683601379E0,8.608299248E0
1.002295708E1,-2.893482971E0,4.102369080E0,-6.972051544E0,8.591343231E0
1.003298808E1,-2.139949951E0,3.977678375E0,-6.839876404E0,8.196659092E0
1.004302008E1,-1.356479187E0,3.693419495E0,-6.404132538E0,7.516268816E0
1.005305208E1,-7.306306458E-1,3.270099792E0,-5.747448120E0,6.652859061E0
1.006308408E1,-2.371069336E-1,2.897823944E0,-5.053940277E0,5.830601653E0
1.007311608E1,1.193019104E-1,2.601889343E0,-4.306394806E0,5.032802134E0
1.008314808E1,4.026626587E-1,2.393073578E0,-3.567980347E0,4.315022841E0
1.009318008E1,6.587800598E-1,2.274370422E0,-3.001558228E0,3.823101330E0
1.010321108E1,8.446934509E-1,2.221979370E0,-2.596650238E0,3.520410744E0
1.011324308E1,1.057401123E0,2.232307892E0,-2.328408051E0,3.394522015E0
1.012327508E1,1.321601715E0,2.389780426E0,-2.222578125E0,3.521013363E0
1.013330708E1,1.545985107E0,2.677182770E0,-2.271975403E0,3.836567446E0
1.014333908E1,1.717229004E0,3.111729126E0,-2.493514709E0,4.341583722E0
1.015337108E1,1.601669312E0,3.804189148E0,-2.693798218E0,4.928868886E0
1.016340308E1,7.762857056E-1,4.614753571E0,-2.752326508E0,5.428984363E0
1.017343408E1,-5.388793945E-1,5.710175629E0,-2.332898712E0,6.191842465E0
1.018346608E1,-3.067570953E0,7.010072479E0,-5.180726624E-1,7.669387655E0
1.019349808E1,-7.369325409E0,8.551267548E0,3.062930603E0,1.169669515E1
1.020353008E1,-1.233704498E1,1.067475174E1,8.947044525E0,1.860652061E1
1.021356208E1,-1.589275085E1,1.303579193E1,1.741328888E1,2.693945119E1
1.022359408E1,-1.941926743E1,1.439227112E1,2.150697601E1,3.235421816E1
1.023362608E1,-2.462199829E1,1.434481979E1,2.388208694E1,3.718024652E1
1.024365708E1,-2.827335526E1,1.397643585E1,2.755425064E1,4.188030689E1
1.025368908E1,-2.945963837E1,1.300750076E1,2.918720490E1,4.346214788E1
1.026372108E1,-2.666465057E1,1.102098175E1,2.825224915E1,4.038137208E1
1.027375308E1,-2.077664474E1,8.955726471E0,2.613999161E1,3.457127659E1
1.028378508E1,-1.444960190E1,7.472910004E0,2.324082047E1,2.836848806E1
1.029381708E1,-9.239386597E0,6.559659119E0,2.002071671E1,2.300487970E1
1.030384908E1,-5.567073212E0,5.927074585E0,1.701900879E1,1.886184449E1
1.031388008E1,-3.574416962E0,5.687273254E0,1.418031189E1,1.569085017E1
1.032391208E1,-2.808459778E0,5.703589325E0,1.139146133E1,1.304545012E1
1.033394408E1,-2.234403534E0,5.793701935E0,8.643475800E0,1.064280110E1
1.034397608E1,-1.483864288E0,5.632038116E0,6.063441010E0,8.407557520E0
1.035400808E1,-8.839118958E-1,5.212161255E0,3.998934174E0,6.628680088E0
1.036404008E1,-6.957531738E-1,4.882995758E0,2.759960632E0,5.651999889E0
1.037407208E1,-1.100960541E0,4.901108093E0,2.035616913E0,5.420028678E0
1.038410308E1,-2.001787262E0,5.209167480E0,1.438807983E0,5.763050103E0
1.039413508E1,-3.039579163E0,5.535788269E0,6.544390869E-1,6.349195521E0
1.040416708E1,-4.032763824E0,5.860313416E0,-3.421884155E-1,7.122046778E0
1.041419908E1,-4.357438660E0,6.212530975E0,-1.412462769E0,7.718669825E0
1.042423108E1,-4.416715393E0,6.295907593E0,-2.467019806E0,8.076633829E0
1.043426308E1,-4.569397888E0,6.080655212E0,-3.340752869E0,8.307490271E0
1.044429508E1,-4.453838196E0,5.909860382E0,-3.915856934E0,8.372398697E0
1.045432608E1,-4.020639038E0,5.815706177E0,-4.221970367E0,8.234865536E0
1.046435808E1,-3.397933960E0,5.651347961E0,-4.291126556E0,7.867493635E0
1.047439008E1,-2.789748688E0,5.359454956E0,-4.028871918E0,7.262111545E0
1.048442208E1,-2.358794861E0,4.988526306E0,-3.487298126E0,6.527676166E0
1.049445408E1,-2.081122284E0,4.703818359E0,-2.723137207E0,5.820004585E0
1.050448608E1,-1.796114960E0,4.450095978E0,-1.780846710E0,5.118671523E0
1.051451808E1,-1.470092926E0,4.188739471E0,-6.156697083E-1,4.481714043E0
1.052454908E1,-1.471290436E0,4.047283630E0,-2.171983337E-1,4.311887690E0
1.053458108E1,-1.500330048E0,3.797153778E0,-3.218307495E-1,4.095478250E0
1.054461308E1,-1.266067200E0,3.469335480E0,-9.624984741E-2,3.694384774E0
1.055464508E1,-1.008003845E0,3.285218353E0,1.407073975E-1,3.439262996E0
1.056467708E1,-7.878117371E-1,3.128344574E0,1.737886047E-1,3.230694908E0
1.057470908E1,-5.462141418E-1,2.971919861E0,1.751358032E-1,3.026768920E0
1.058474108E1,-3.785627747E-1,2.823578339E0,3.062631226E-1,2.865257669E0
1.059477208E1,-2.426454163E-1,2.776426392E0,5.340893555E-1,2.837722986E0
1.060480408E1,-8.098159790E-2,2.805615692E0,8.523275757E-1,2.933342757E0
1.061483608E1,7.574249268E-2,3.168760529E0,1.308429108E0,3.429105852E0
1.062486808E1,2.158511353E-1,3.813020782E0,2.002086639E0,4.312084196E0
1.063490008E1,5.628295898E-1,4.825066223E0,3.189716949E0,5.811397028E0
1.064493208E1,9.560618591E-1,6.775959320E0,4.964127045E0,8.454007115E0
1.065496408E1,-2.176473999E-1,9.219328308E0,7.334597626E0,1.178302623E1
1.066499508E1,-3.175047455E0,1.114088242E1,1.034259247E1,1.552962995E1
1.067502708E1,-5.822741547E0,1.201656143E1,1.413360901E1,1.944379005E1
1.068505908E1,-7.303162994E0,1.249900818E1,1.832174973E1,2.335054407E1
1.069509108E1,-9.620045013E0,1.344010117E1,2.270239014E1,2.808166846E1
1.070512308E1,-1.361793137E1,1.353230942E1,2.614657791E1,3.243786351E1
1.071515508E1,-1.785097870E1,1.185609512E1,2.930306396E1,3.630280967E1
1.072518608E1,-1.984094055E1,9.339827728E0,3.226974472E1,3.901578819E1
1.073521808E1,-1.821741669E1,6.491251373E0,3.252840683E1,3.784320105E1
1.074525008E1,-1.356703720E1,4.471800842E0,3.014715866E1,3.336034587E1
1.075528208E1,-7.907156982E0,3.873944092E0,2.630120636E1,2.773596997E1
1.076531408E1,-3.520978088E0,3.797153778E0,2.140144547E1,2.201902658E1
1.077534608E1,-7.210505676E-1,3.585643616E0,1.643043274E1,1.683258370E1
1.078537808E1,1.374591522E0,3.553011475E0,1.221385117E1,1.279419996E1
1.079541071E1,2.889591064E0,3.650907898E0,8.903784485E0,1.004769840E1
1.080544171E1,4.071233826E0,3.460354156E0,6.561754761E0,8.462010476E0
1.081547371E1,5.398673401E0,2.797831879E0,5.288203125E0,8.058450844E0
1.082550571E1,6.678062897E0,1.837878113E0,5.006189575E0,8.546125091E0
1.083553771E1,7.249424744E0,9.186396790E-1,5.370681610E0,9.068752887E0
1.084556971E1,6.777905273E0,3.378474426E-1,5.998027039E0,9.057067359E0
1.085560171E1,5.475164337E0,2.176473999E-1,6.470744019E0,8.479110983E0
1.086563271E1,3.716920624E0,3.933819580E-1,6.233487396E0,7.268191894E0
1.087566471E1,1.618434448E0,7.018904114E-1,5.230572968E0,5.520042915E0
1.088569671E1,-8.015830994E-1,1.147214355E0,3.745960236E0,3.998856628E0
1.089572871E1,-3.406466217E0,1.620530090E0,2.067799988E0,4.301851538E0
1.090576071E1,-5.385650482E0,2.236349487E0,4.933740234E-1,5.852342101E0
1.091579271E1,-6.095923462E0,2.822979584E0,-7.165599060E-1,6.755956978E0
1.092582471E1,-6.508166199E0,3.061882782E0,-1.931583252E0,7.447306043E0
1.093585571E1,-5.994284821E0,3.182681580E0,-3.305875397E0,7.549153905E0
1.094588771E1,-4.740791473E0,3.133883057E0,-4.464615784E0,7.226971766E0
1.095591971E1,-3.616180115E0,2.816842346E0,-5.280419312E0,6.992437882E0
1.096595171E1,-2.701282654E0,2.369722137E0,-5.538033600E0,6.601691233E0
1.097598371E1,-1.808838501E0,1.959724731E0,-5.088368683E0,5.744903271E0
1.098601571E1,-1.132694550E0,1.722318420E0,-4.074526978E0,4.566305703E0
1.099604771E1,-9.241781616E-1,1.741927643E0,-2.816243591E0,3.437971081E0
1.100607871E1,-1.128203888E0,2.024539948E0,-1.636097717E0,2.836974049E0
1.101611071E1,-1.646276550E0,2.468965759E0,-9.488768005E-1,3.115507275E0
1.102614271E1,-2.471360779E0,3.039728851E0,-7.249424744E-1,3.984108078E0
1.103617471E1,-3.095413055E0,3.714375916E0,-9.548643494E-1,4.928482155E0
1.104620671E1,-3.194956055E0,4.380191345E0,-1.517095184E0,5.629866625E0
1.105623871E1,-2.887645111E0,5.279072113E0,-2.144889679E0,6.388086443E0
1.106627071E1,-2.925815735E0,6.203699341E0,-2.532733154E0,7.311704347E0
1.107630171E1,-3.850143585E0,7.027735748E0,-2.330803070E0,8.345377063E0
1.108633371E1,-6.180946655E0,8.068371735E0,-8.936416626E-1,1.020300541E1
1.109636571E1,-1.014934433E1,9.625733185E0,1.884281616E0,1.411433480E1
1.110639771E1,-1.456201813E1,1.141601028E1,5.786067810E0,1.938701224E1
1.111642971E1,-1.859837448E1,1.280392410E1,1.072684341E1,2.499810344E1
1.112646171E1,-2.101644608E1,1.318742661E1,1.717797821E1,3.017751086E1
1.113649271E1,-2.254895920E1,1.220262451E1,2.082828735E1,3.303297080E1
1.114652471E1,-2.382355865E1,9.694290619E0,2.340353210E1,3.477450981E1
1.115655671E1,-2.334320755E1,7.329957275E0,2.605901001E1,3.574500825E1
1.116658871E1,-2.154050629E1,5.301226044E0,2.706087662E1,3.499124822E1
1.117662071E1,-1.798495010E1,3.679648132E0,2.691014008E1,3.257535694E1
1.118665271E1,-1.341360626E1,2.801574097E0,2.595123413E1,2.934689427E1
1.119668471E1,-9.304351501E0,2.339035950E0,2.378927994E1,2.565096267E1
1.120671571E1,-6.448440399E0,1.966610413E0,2.055914703E1,2.163627664E1
1.121674771E1,-4.732857971E0,1.851799164E0,1.708786560E1,1.782762619E1
1.122677971E1,-3.452121277E0,1.994602203E0,1.377914612E1,1.434435244E1
1.123681171E1,-2.348166962E0,2.153272247E0,1.073896820E1,1.120160290E1
1.124684371E1,-1.354832611E0,2.119442596E0,8.136929169E0,8.516878807E0
1.125687571E1,-4.224215698E-1,1.901944885E0,6.172414398E0,6.472598692E0
1.126690771E1,5.396278381E-1,1.713636475E0,5.002597046E0,5.315423349E0
1.127693871E1,9.865983582E-1,1.650018768E0,4.439468079E0,4.837852321E0
1.128697071E1,5.914201355E-1,1.729952545E0,3.995641022E0,4.394048334E0
1.129700271E1,-1.859133911E-1,2.026635590E0,3.369942169E0,3.936791311E0
1.130703471E1,-1.119521942E0,2.421813812E0,2.356100464E0,3.559455143E0
1.131706671E1,-2.116598511E0,2.799777832E0,1.014440460E0,3.653468846E0
1.132709871E1,-2.780318298E0,3.190764771E0,-4.748126221E-1,4.258708336E0
1.133713071E1,-2.930007019E0,3.551065521E0,-1.929637299E0,4.991844105E0
1.134716171E1,-2.688559113E0,3.736529846E0,-3.287463684E0,5.656626456E0
1.135719371E1,-2.421065369E0,3.702550507E0,-4.413721619E0,6.249110041E0
1.136722571E1,-2.054926758E0,3.544928284E0,-5.238207092E0,6.650417585E0
1.137725771E1,-1.654958496E0,3.303031311E0,-5.716013489E0,6.806005706E0
1.138728971E1,-1.332528992E0,3.098257141E0,-5.813760223E0,6.721208133E0
1.139732171E1,-1.063837738E0,2.884801025E0,-5.538782043E0,6.334977049E0
1.140735371E1,-7.973918152E-1,2.739004211E0,-4.966372375E0,5.727375695E0
1.141738471E1,-6.491999817E-1,2.627486115E0,-4.392914886E0,5.159733045E0
1.142741671E1,-6.849755859E-1,2.574795685E0,-3.810625763E0,4.649691718E0
1.143744871E1,-7.159611511E-1,2.576591949E0,-3.270698547E0,4.224795312E0
1.144748071E1,-6.628216553E-1,2.725532227E0,-2.746189270E0,3.925482642E0
1.145751271E1,-5.680686951E-1,2.944377136E0,-2.297572174E0,3.777684034E0
1.146754471E1,-1.655557251E-1,3.117866364E0,-2.129172363E0,3.779136715E0
1.147757671E1,3.815565491E-1,3.172652435E0,-2.150278473E0,3.851623864E0
1.148760771E1,1.896556091E-1,3.426823883E0,-1.870809631E0,3.908838683E0
1.149763971E1,-1.121018829E0,4.321513367E0,-7.111711121E-1,4.520832373E0
1.150767171E1,-4.169579315E0,5.752687225E0,3.141966248E0,7.768574765E0
1.151770371E1,-8.614585876E0,7.491920471E0,9.942324829E0,1.513901533E1
1.152773571E1,-1.334744385E1,8.767717438E0,1.651575531E1,2.297383947E1
1.153776771E1,-1.752121445E1,9.251062317E0,2.179198334E1,2.945276978E1
1.154779971E1,-2.076407089E1,9.882299652E0,2.532224213E1,3.420559067E1
1.155783071E1,-2.265329224E1,1.077953384E1,2.727493149E1,3.705795308E1
1.156786271E1,-2.258757889E1,1.090826614E1,2.710802856E1,3.693283367E1
1.157789471E1,-2.059597046E1,9.952952728E0,2.588941269E1,3.454731475E1
1.158792671E1,-1.715492615E1,8.670569458E0,2.418056625E1,3.088964309E1
1.159795871E1,-1.303429504E1,7.881560211E0,2.214240463E1,2.687560086E1
1.160799071E1,-9.199868774E0,7.669600983E0,1.970083191E1,2.305608689E1
1.161802171E1,-6.403384094E0,7.684719543E0,1.724848160E1,1.993911632E1
1.162805371E1,-4.652624817E0,7.578739929E0,1.508772491E1,1.751352791E1
1.163808571E1,-3.482508087E0,7.073989563E0,1.310509781E1,1.529420738E1
1.164811771E1,-2.382295990E0,6.396498413E0,1.127919479E1,1.318373093E1
1.165814971E1,-1.264121246E0,5.827681274E0,9.565408630E0,1.127195253E1
1.166818171E1,-3.186872864E-1,5.326074371E0,8.088430023E0,9.689753869E0
1.167821371E1,2.510279846E-1,4.819228363E0,6.875352631E0,8.399907789E0
1.168824471E1,4.692741394E-1,4.460723877E0,5.765560455E0,7.304790421E0
1.169827671E1,4.258644104E-1,4.272864532E0,4.583917694E0,6.281005750E0
1.170830871E1,3.731739807E-1,4.196972351E0,3.423381042E0,5.428938524E0
1.171834071E1,3.778143311E-1,4.213438110E0,2.285597076E0,4.808300986E0
1.172837271E1,5.147795105E-1,4.208199005E0,1.201102295E0,4.406425256E0
1.173840471E1,7.658074951E-1,4.023932190E0,1.128652954E-1,4.097710332E0
1.174843671E1,1.017134857E0,3.725752258E0,-8.755293274E-1,3.960094041E0
1.175846771E1,1.202599182E0,3.404969330E0,-1.713636475E0,3.997075293E0
1.176849971E1,1.436412964E0,3.024460602E0,-2.362088013E0,4.097572930E0
1.177853171E1,1.730700989E0,2.550246735E0,-2.966082001E0,4.277467330E0
1.178856371E1,1.892065430E0,2.193388824E0,-3.564537506E0,4.593124618E0
1.179859508E1,2.093247070E0,2.082020416E0,-4.057761841E0,5.018159371E0
1.180862708E1,2.257156219E0,2.073338470E0,-4.386029205E0,5.350769926E0
1.181865908E1,2.237696686E0,2.058070221E0,-4.587360535E0,5.503345907E0
1.182869008E1,2.022743683E0,2.001487885E0,-4.739893341E0,5.528474893E0
1.183872208E1,1.904190216E0,1.974693604E0,-4.661755829E0,5.409003847E0
1.184875408E1,1.908830566E0,2.101929016E0,-4.347259827E0,5.192341256E0
1.185878608E1,1.826202393E0,2.270927582E0,-3.959715729E0,4.916449523E0
1.186881808E1,1.694626007E0,2.426304474E0,-3.479963379E0,4.568244282E0
1.187885008E1,1.409169617E0,2.710713043E0,-2.796185303E0,4.141542763E0
1.188888208E1,7.765850830E-1,3.110381927E0,-1.889520721E0,3.721269768E0
1.189891308E1,-8.607101440E-2,3.544628906E0,-7.441026306E-1,3.622911954E0
1.190894508E1,-1.000220032E0,4.158053284E0,6.391708374E-1,4.324163108E0
1.191897708E1,-2.248025208E0,5.062023468E0,2.423161011E0,6.045610656E0
1.192900908E1,-4.027824097E0,6.084547119E0,4.713548126E0,8.686922156E0
1.193904108E1,-5.932463379E0,7.468868408E0,7.518115997E0,1.214496543E1
1.194907308E1,-8.491841125E0,8.980275421E0,1.106918152E1,1.659166935E1
1.195910508E1,-1.203422470E1,9.456884308E0,1.547227524E1,2.176342174E1
1.196913608E1,-1.543425430E1,9.046138458E0,2.081346817E1,2.744538730E1
1.197916808E1,-1.935669754E1,1.017958145E1,2.604344238E1,3.400833000E1
1.198920008E1,-2.350112915E1,1.250334915E1,3.035088501E1,4.037094292E1
1.199923208E1,-2.678619781E1,1.351060455E1,3.369223663E1,4.511323130E1
1.200926408E1,-2.797173248E1,1.230022156E1,3.477119293E1,4.628983826E1
1.201929608E1,-2.580229385E1,1.026984375E1,3.323134506E1,4.330762466E1
1.202932708E1,-2.091316086E1,8.865913239E0,2.950274872E1,3.723408246E1
1.203935908E1,-1.576341980E1,8.044571228E0,2.483096375E1,3.049224968E1
1.204939108E1,-1.180879349E1,7.528145142E0,2.038041870E1,2.472816288E1
1.205942308E1,-9.117989044E0,7.355554047E0,1.663311127E1,2.034458871E1
1.206945508E1,-7.383994904E0,6.850055237E0,1.358934082E1,1.691498807E1
1.207948708E1,-5.791905670E0,5.847589874E0,1.096769257E1,1.371243081E1
1.208951908E1,-4.070934448E0,4.928201752E0,8.740174713E0,1.082821933E1
1.209955008E1,-2.603386230E0,4.318519592E0,6.943460999E0,8.581310038E0
1.210958208E1,-1.747166748E0,3.879931641E0,5.456752625E0,6.919726179E0
1.211961408E1,-1.349443817E0,3.509901123E0,4.082759857E0,5.550615512E0
1.212964608E1,-1.204545135E0,3.170407104E0,2.668949890E0,4.315750654E0
1.213967808E1,-1.109193420E0,2.778971100E0,1.169218597E0,3.212485416E0
1.214971008E1,-9.376501465E-1,2.482737122E0,-4.150868225E-1,2.686162408E0
1.215974208E1,-6.864724731E-1,2.281405792E0,-2.089205475E0,3.168727877E0
1.216977308E1,-3.504212952E-1,2.064806213E0,-3.695664825E0,4.247841603E0
1.217980508E1,1.396595764E-1,1.806293793E0,-5.145250397E0,5.454888056E0
1.218983708E1,7.071295166E-1,1.606758728E0,-6.278094635E0,6.518909265E0
1.219986908E1,9.343569946E-1,1.301693115E0,-7.217091980E0,7.392823859E0
1.220990108E1,9.102571106E-1,9.439370728E-1,-7.961643677E0,8.068912891E0
1.221993308E1,9.506730652E-1,6.993457031E-1,-8.291407928E0,8.374981142E0
1.222996408E1,9.449848938E-1,7.234455872E-1,-8.260871429E0,8.346158802E0
1.223999608E1,9.246272278E-1,8.096662903E-1,-7.940836945E0,8.035383400E0
1.225002808E1,9.511221313E-1,9.192384338E-1,-7.588769073E0,7.703184319E0
1.226006008E1,1.016236725E0,1.008452911E0,-7.241940308E0,7.382100905E0
1.227009208E1,1.148860931E0,1.006506958E0,-6.907386017E0,7.074243372E0
1.228012408E1,1.345701599E0,9.202862549E-1,-6.539002075E0,6.739168177E0
1.229015608E1,1.545685730E0,8.541238403E-1,-6.059998169E0,6.312071745E0
1.230018708E1,1.729054413E0,9.461824036E-1,-5.374723206E0,5.724730547E0
1.231021908E1,1.817221069E0,1.150956573E0,-4.612957306E0,5.089829914E0
1.232025108E1,1.804347839E0,1.394949188E0,-3.916306000E0,4.531998130E0
1.233028308E1,1.599573669E0,1.750010834E0,-3.213517456E0,3.993478219E0
1.234031508E1,7.623646545E-1,2.446811829E0,-2.371219025E0,3.491527983E0
1.235034708E1,-8.177494812E-1,3.516637115E0,-1.490600281E0,3.906064517E0
1.236037908E1,-2.670446777E0,5.072651367E0,-1.207987976E-1,5.733905321E0
1.237041008E1,-4.692741394E0,7.292684784E0,1.761087799E0,8.849096190E0
1.238044208E1,-7.330406342E0,9.679321747E0,4.014651489E0,1.278833661E1
1.239047408E1,-1.101694016E1,1.152947433E1,7.057823181E0,1.743888233E1
1.240050608E1,-1.565729050E1,1.217807556E1,1.168679718E1,2.302254327E1
1.241053808E1,-2.033132080E1,1.243329483E1,1.784349426E1,2.977145803E1
1.242057008E1,-2.385140076E1,1.346120728E1,2.363120865E1,3.617357380E1
1.243060208E1,-2.664683762E1,1.431428329E1,2.761771866E1,4.095962701E1
1.244063308E1,-2.863126099E1,1.364861755E1,2.897344940E1,4.295922063E1
1.245066508E1,-2.829999985E1,1.217463272E1,2.819072708E1,4.175917584E1
1.246069708E1,-2.450628891E1,1.077803696E1,2.558210175E1,3.702928850E1
1.247072908E1,-1.891691208E1,9.748028870E0,2.149949158E1,3.025064904E1
1.248076108E1,-1.378543304E1,8.803642731E0,1.776475800E1,2.414806237E1
1.249079308E1,-9.603579254E0,7.961943054E0,1.521481064E1,1.967515526E1
1.250082408E1,-6.793622589E0,7.326664124E0,1.374322083E1,1.699145178E1
1.251085608E1,-5.094954987E0,6.518494720E0,1.289433609E1,1.532035388E1
1.252088808E1,-4.031566315E0,5.264402618E0,1.207673630E1,1.377733724E1
1.253092008E1,-3.165617065E0,3.835773468E0,1.111169312E1,1.217390707E1
1.254095208E1,-2.534978485E0,2.729124756E0,9.833800507E0,1.051560128E1
1.255098408E1,-2.224374390E0,2.377056885E0,8.302185516E0,8.917652449E0
1.256101608E1,-2.210153961E0,2.532284088E0,6.269562378E0,7.113694936E0
1.257104708E1,-2.475552063E0,2.873274994E0,3.742367706E0,5.328168846E0
1.258107908E1,-3.153342590E0,3.092718658E0,1.197360077E0,4.576259318E0
1.259111108E1,-3.727249146E0,3.266357574E0,-1.399589539E0,5.149789207E0
1.260114308E1,-3.999233551E0,3.409010925E0,-4.118685150E0,6.676735119E0
1.261117508E1,-3.856580200E0,3.241359558E0,-6.690487061E0,8.375096401E0
1.262120708E1,-2.972817993E0,2.979553986E0,-8.945697327E0,9.886399215E0
1.263123908E1,-2.348017273E0,2.559677124E0,-1.074136322E1,1.128902192E1
1.264127008E1,-1.976639557E0,2.079026642E0,-1.168964127E1,1.203649320E1
1.265130208E1,-1.452279968E0,1.728605347E0,-1.163425644E1,1.185129176E1
1.266133408E1,-8.574169922E-1,1.356030121E0,-1.075842773E1,1.087739624E1
1.267136608E1,-3.399430847E-1,1.015039215E0,-9.443861389E0,9.504335003E0
1.268139808E1,5.733078003E-2,7.349716187E-1,-8.046816559E0,8.080515258E0
1.269143008E1,3.487747192E-1,4.114942932E-1,-6.703210602E0,6.724879458E0
1.270146108E1,7.870632935E-1,9.520202637E-2,-5.453758850E0,5.511081350E0
1.271149308E1,1.278940430E0,-2.694396973E-3,-4.337080994E0,4.521721733E0
1.272152508E1,1.525028687E0,4.221221924E-2,-3.361559601E0,3.691554864E0
1.273155708E1,1.660496979E0,8.247848511E-2,-2.283950500E0,2.824974833E0
1.274158908E1,1.512754211E0,3.644920349E-1,-1.539249115E0,2.188736527E0
1.275162108E1,1.142723694E0,7.544311523E-1,-1.107247467E0,1.760960181E0
1.276165308E1,5.161267090E-1,1.136137390E0,-2.538720703E-1,1.273438643E0
1.277168408E1,-1.555265808E-1,1.735790405E0,7.713459778E-1,1.905815171E0
1.278171608E1,-7.209008789E-1,2.548151093E0,1.836680603E0,3.222757779E0
1.279174808E1,-1.682201843E0,3.537294159E0,3.286116486E0,5.112808872E0
1.280178021E1,-3.082090759E0,5.058430939E0,5.228327637E0,7.900785840E0
1.281181221E1,-5.358556824E0,7.094197540E0,7.900420990E0,1.189362946E1
1.282184421E1,-8.346194000E0,9.110504608E0,1.114672028E1,1.664060159E1
1.283187621E1,-1.171972870E1,1.008393036E1,1.474418930E1,2.136419459E1
1.284190721E1,-1.542482391E1,1.029603928E1,1.867800888E1,2.632112523E1
1.285193921E1,-1.833941299E1,1.062325882E1,2.276256500E1,3.110180159E1
1.286197121E1,-2.017190231E1,1.102412521E1,2.641062881E1,3.501368724E1
1.287200321E1,-2.164304306E1,1.075917618E1,2.902613983E1,3.777165575E1
1.288203521E1,-2.223910355E1,9.417067108E0,3.043740509E1,3.885478745E1
1.289206721E1,-2.078906891E1,7.818690948E0,3.023772034E1,3.751848938E1
1.290209821E1,-1.745056137E1,6.791526947E0,2.796155365E1,3.365256919E1
1.291213021E1,-1.354772736E1,6.327192535E0,2.410497345E1,2.836589549E1
1.292216221E1,-1.015458344E1,5.914500732E0,2.014974838E1,2.332614935E1
1.293219421E1,-7.609126740E0,5.703439636E0,1.666649185E1,1.918853783E1
1.294222621E1,-5.876330109E0,5.576054535E0,1.397179550E1,1.615037799E1
1.295225821E1,-4.579277344E0,5.067861328E0,1.215173035E1,1.393978299E1
1.296229021E1,-3.052452393E0,4.135749664E0,1.134790192E1,1.245779952E1
1.297232121E1,-1.351240082E0,3.109334106E0,1.116782639E1,1.167108198E1
1.298235321E1,2.803669739E-1,2.322270813E0,1.116812576E1,1.141045926E1
1.299238521E1,1.329535217E0,1.973496094E0,1.115345627E1,1.140447006E1
1.300241721E1,1.427581329E0,1.995350647E0,1.100301910E1,1.127323565E1
1.301244921E1,6.044430542E-1,2.427202606E0,1.023182281E1,1.053313163E1
1.302248121E1,-8.399034119E-1,3.166215820E0,8.811725922E0,9.400897515E0
1.303251221E1,-2.575095062E0,4.003125458E0,6.799161072E0,8.299681879E0
1.304254421E1,-4.136797485E0,4.763394470E0,4.228556671E0,7.594979383E0
1.305257621E1,-5.352269897E0,5.373525696E0,1.284778290E0,7.692348582E0
1.306260821E1,-6.098168793E0,5.802832947E0,-1.811832275E0,8.610648583E0
1.307264021E1,-6.403833160E0,6.026018829E0,-4.651127930E0,9.947611427E0
1.308267221E1,-6.498885498E0,5.934559021E0,-6.990463257E0,1.123926510E1
1.309270421E1,-6.321204987E0,5.682632904E0,-8.428373108E0,1.197027245E1
1.310273521E1,-6.517746277E0,5.572911072E0,-9.079219666E0,1.248881836E1
1.311276721E1,-6.125412140E0,5.573060760E0,-9.117240601E0,1.231680788E1
1.312279921E1,-5.381010132E0,5.481151886E0,-8.562494202E0,1.150280848E1
1.313283121E1,-4.613705750E0,5.241500244E0,-7.788453827E0,1.046038329E1
1.314286321E1,-3.924239502E0,4.761598206E0,-6.879094849E0,9.240910078E0
1.315289521E1,-3.326532440E0,4.244573364E0,-6.114784241E0,8.153085761E0
1.316292721E1,-2.775677948E0,3.805835724E0,-5.443430328E0,7.198590652E0
1.317295821E1,-2.277663574E0,3.446732483E0,-4.727768555E0,6.278495972E0
1.318299021E1,-1.842817841E0,3.111878815E0,-3.887865143E0,5.309921159E0
1.319302221E1,-1.547631683E0,2.890938263E0,-2.965034180E0,4.420872714E0
1.320305421E1,-1.419198761E0,2.728675690E0,-2.321222992E0,3.853293698E0
1.321308621E1,-1.484313354E0,2.565065918E0,-1.736987915E0,3.435094804E0
1.322311821E1,-1.656156006E0,2.491568756E0,-9.741741943E-1,3.146392052E0
1.323314921E1,-1.654808807E0,2.641556854E0,-2.272274780E-1,3.125355521E0
1.324318121E1,-1.678160248E0,3.008144531E0,6.024971008E-1,3.496878336E0
1.325321321E1,-2.077230377E0,3.563789062E0,1.640438690E0,4.439202363E0
1.326324521E1,-2.688858490E0,4.333189087E0,2.761906586E0,5.799535812E0
1.327327721E1,-3.357368317E0,5.396278381E0,4.275409241E0,7.659691022E0
1.328330921E1,-4.305346985E0,6.518195343E0,6.702761536E0,1.029319656E1
1.329334121E1,-6.136638794E0,7.411986694E0,1.015233810E1,1.398806103E1
1.330337221E1,-8.599018250E0,8.165669403E0,1.451321960E1,1.874179327E1
1.331340421E1,-1.182241516E1,8.880283356E0,1.911285461E1,2.416464658E1
1.332343621E1,-1.538081543E1,9.328451385E0,2.286689804E1,2.909440693E1
1.333346821E1,-1.811293396E1,9.466464386E0,2.522150162E1,3.246253946E1
1.334350021E1,-1.969244934E1,9.453740845E0,2.567790253E1,3.371231904E1
1.335353221E1,-1.982537292E1,9.248816986E0,2.480057693E1,3.307044970E1
1.336356421E1,-1.837743393E1,8.636590118E0,2.346026413E1,3.102748394E1
1.337359521E1,-1.580817673E1,7.614665222E0,2.202190521E1,2.815751919E1
1.338362721E1,-1.231848358E1,6.679559784E0,2.081227066E1,2.509008104E1
1.339365921E1,-8.635991364E0,5.926775208E0,1.938678497E1,2.203529993E1
1.340369121E1,-5.281018066E0,5.232219543E0,1.759411285E1,1.910021152E1
1.341372321E1,-2.674488373E0,4.858297119E0,1.566208054E1,1.661495428E1
1.342375521E1,-9.734257507E-1,4.647236023E0,1.392569138E1,1.471289369E1
1.343378621E1,-1.124162292E-1,4.359983368E0,1.266800674E1,1.339777919E1
1.344381821E1,-1.143472137E0,4.284540253E0,1.210323120E1,1.289003566E1
1.345385021E1,-3.968397675E0,4.755460968E0,1.204410416E1,1.354337602E1
1.346388221E1,-6.579118652E0,5.950575714E0,1.149085464E1,1.451667641E1
1.347391421E1,-7.152875519E0,7.208709412E0,8.674461365E0,1.335572535E1
1.348394621E1,-5.652096405E0,8.041727142E0,2.700983276E0,1.019366862E1
1.349397821E1,-4.716092834E0,8.674161987E0,-4.085903320E0,1.068537429E1
1.350400921E1,-5.280569000E0,8.597072296E0,-8.057145081E0,1.291168648E1
1.351404121E1,-6.346203003E0,7.996221771E0,-8.728049927E0,1.343103535E1
1.352407321E1,-7.182813263E0,7.106621704E0,-8.035589905E0,1.290998000E1
1.353410521E1,-6.833739166E0,5.946534119E0,-6.914122009E0,1.139589146E1
1.354413721E1,-5.671106873E0,4.715194702E0,-5.768554230E0,9.363265036E0
1.355416921E1,-4.017645264E0,3.536396027E0,-4.508474579E0,6.998136420E0
1.356420021E1,-2.087708588E0,2.894680481E0,-2.998714142E0,4.661543600E0
1.357423221E1,-5.507048035E-1,2.221979370E0,-1.829345856E0,2.930353965E0
1.358426421E1,2.686912537E-1,1.375938721E0,-1.136736145E0,1.804874349E0
1.359429621E1,7.908055115E-1,9.985734558E-1,-9.177415466E-1,1.569959187E0
1.360432821E1,1.546583862E0,7.945477295E-1,-1.169218597E0,2.095304242E0
1.361436021E1,2.411934357E0,5.457650757E-1,-1.759441223E0,3.034949798E0
1.362439221E1,2.851270752E0,3.047662354E-1,-2.383942566E0,3.729049412E0
1.363442321E1,2.528092804E0,2.688409424E-1,-2.572101288E0,3.616522323E0
1.364445521E1,1.776356049E0,5.041516113E-1,-2.192640381E0,2.866580105E0
1.365448721E1,7.981402588E-1,8.834628296E-1,-1.586401062E0,1.983482486E0
1.366451921E1,-3.291654968E-1,1.258433075E0,-8.795709229E-1,1.570238433E0
1.367455121E1,-1.173409882E0,1.804198151E0,-1.990859985E-1,2.161401617E0
1.368458321E1,-1.718426514E0,2.421364746E0,4.007167053E-1,2.996092588E0
1.369461421E1,-2.305056610E0,2.985990601E0,1.147064667E0,3.942738032E0
1.370464621E1,-2.793191528E0,3.710334320E0,2.061962128E0,5.081356856E0
1.371467821E1,-3.033292236E0,4.756209412E0,2.974763947E0,6.377429756E0
1.372471021E1,-3.438050537E0,5.906417542E0,3.726500702E0,7.784135607E0
1.373474221E1,-4.313729553E0,6.953340454E0,4.331392822E0,9.258410766E0
1.374477421E1,-4.752167816E0,7.778873749E0,5.518574066E0,1.065592021E1
1.375480621E1,-5.425018616E0,8.327183533E0,8.325536957E0,1.296485165E1
1.376483721E1,-6.714736633E0,8.699459381E0,1.230905319E1,1.650094155E1
1.377486921E1,-7.703131256E0,8.753646698E0,1.663385971E1,2.031378474E1
1.378490121E1,-8.040379944E0,8.290060730E0,1.952734268E1,2.268677872E1
1.379493321E1,-7.556436310E0,7.355254669E0,2.073637848E1,2.326363887E1
1.380496463E1,-6.496340790E0,6.496191101E0,2.115580627E1,2.306449829E1
1.381499663E1,-5.353916473E0,5.822741547E0,2.108500351E1,2.251990483E1
1.382502763E1,-4.128115540E0,5.368136902E0,2.050555847E1,2.159481790E1
1.383505963E1,-2.934497681E0,5.241949310E0,1.954799973E1,2.045027145E1
1.384509163E1,-1.764530640E0,5.287005615E0,1.840931763E1,1.923457752E1
1.385512363E1,-6.195616150E-1,5.202281799E0,1.704056396E1,1.782774278E1
1.386515563E1,7.047344971E-1,4.946613464E0,1.536225403E1,1.615439520E1
1.387518763E1,2.090552673E0,4.667294312E0,1.368813538E1,1.461229266E1
1.388521962E1,3.183579712E0,4.428840179E0,1.222358093E1,1.338528057E1
1.389525062E1,3.781137085E0,4.239933014E0,1.124521545E1,1.259876582E1
1.390528262E1,3.770060120E0,4.084556122E0,1.084839066E1,1.218952550E1
1.391531463E1,3.292403412E0,3.876788177E0,1.083626587E1,1.197054989E1
1.392534663E1,2.554587708E0,3.588787079E0,1.098640366E1,1.183665393E1
1.393537863E1,1.674717407E0,3.282224579E0,1.106439148E1,1.166183671E1
1.394541063E1,6.357279968E-1,2.999462585E0,1.082878143E1,1.125448503E1
1.395544263E1,-5.210664368E-1,2.786305847E0,1.039707916E1,1.077656094E1
1.396547363E1,-1.579365692E0,2.708617401E0,9.692194977E0,1.018673881E1
1.397550563E1,-2.393822021E0,2.673290863E0,8.644074554E0,9.359321173E0
1.398553763E1,-3.101849670E0,2.745590515E0,7.477999420E0,8.548696625E0
1.399556963E1,-3.875590668E0,2.915786591E0,6.191424866E0,7.864843058E0
1.400560163E1,-4.427193604E0,3.245401154E0,4.857848053E0,7.330167771E0
1.401563362E1,-4.712200928E0,3.660487976E0,3.508104858E0,6.921763468E0
1.402566462E1,-4.929099884E0,3.990850983E0,2.171085205E0,6.703471354E0
1.403569663E1,-4.791386261E0,4.164340210E0,7.964936829E-1,6.397930437E0
1.404572863E1,-4.221670990E0,4.212539978E0,-4.616400146E-1,5.981731398E0
1.405576063E1,-3.517385559E0,4.195176086E0,-1.430425415E0,5.658411476E0
1.406579263E1,-2.733615417E0,4.151017914E0,-1.985471191E0,5.352167675E0
1.407582463E1,-2.110311584E0,4.172124023E0,-2.103874969E0,5.127018991E0
1.408585663E1,-1.645827484E0,4.395160217E0,-1.922751617E0,5.071799999E0
1.409588763E1,-1.251697083E0,4.813839569E0,-1.606309662E0,5.226856389E0
1.410591963E1,-9.741741943E-1,5.305716705E0,-1.464704132E0,5.589723009E0
1.411595163E1,-9.969268799E-1,5.963598633E0,-1.562600555E0,6.245005393E0
1.412598363E1,-1.202599182E0,6.818919983E0,-1.736389160E0,7.138554605E0
1.413601562E1,-1.729653168E0,7.651488647E0,-1.335073700E0,7.957348829E0
1.414604762E1,-3.056194611E0,8.383616180E0,1.809736633E-1,8.925138499E0
1.415607863E1,-5.119354248E0,9.127868500E0,2.660717010E0,1.079838813E1
1.416611063E1,-7.404801636E0,9.800270233E0,5.551954651E0,1.347963591E1
1.417614263E1,-9.782756653E0,1.023975632E1,8.646319885E0,1.659258222E1
1.418617463E1,-1.204170914E1,1.034798126E1,1.145133682E1,1.957591863E1
1.419620663E1,-1.399499725E1,9.820328522E0,1.410861099E1,2.216645449E1
1.420623863E1,-1.526121414E1,8.874894562E0,1.703083420E1,2.452993526E1
1.421627063E1,-1.617236938E1,7.842940521E0,2.001263351E1,2.689912169E1
1.422630163E1,-1.640842850E1,6.615792389E0,2.265508850E1,2.874470855E1
1.423633363E1,-1.558454178E1,5.253475342E0,2.434537354E1,2.937982570E1
1.424636563E1,-1.399065628E1,4.138144684E0,2.453323288E1,2.854368967E1
1.425639762E1,-1.145882126E1,3.316503296E0,2.292886917E1,2.584640827E1
1.426642962E1,-8.416098633E0,2.720891876E0,1.966281097E1,2.156061465E1
1.427646163E1,-5.595364380E0,2.464175720E0,1.577853836E1,1.692165882E1
1.428649263E1,-3.526067505E0,2.640958099E0,1.194441147E1,1.273093779E1
1.429652463E1,-2.099384308E0,3.068020020E0,8.587492218E0,9.357627045E0
1.430655663E1,-1.346450043E0,3.540287933E0,6.060297546E0,7.146591686E0
1.431658863E1,-8.723858643E-1,3.881278839E0,4.328848114E0,5.879141818E0
1.432662063E1,-5.297483826E-1,3.825744324E0,3.629203033E0,5.299817699E0
1.433665263E1,-1.842668152E-1,3.522774353E0,3.870650940E0,5.236967835E0
1.434668363E1,2.850073242E-1,3.250041504E0,4.522245941E0,5.576262844E0
1.435671563E1,7.493417358E-1,3.039130096E0,5.310207367E0,6.164099858E0
1.436674763E1,1.205592957E0,2.755020905E0,5.892795868E0,6.615787006E0
1.437677962E1,1.640738068E0,2.563269653E0,6.459517365E0,7.140569817E0
1.438681162E1,2.008074188E0,2.643802185E0,6.928492126E0,7.682841602E0
1.439684362E1,2.242636414E0,2.521506500E0,6.925797729E0,7.704160389E0
1.440687563E1,2.143542480E0,2.225122833E0,6.459217987E0,7.160128699E0
1.441690663E1,2.190993805E0,2.158361664E0,6.045029297E0,6.782430105E0
1.442693863E1,2.173480225E0,2.364033966E0,5.786965942E0,6.618281325E0
1.443697063E1,1.933229828E0,2.650089111E0,5.825885010E0,6.685902034E0
1.444700263E1,1.290316772E0,2.966830444E0,6.109096069E0,6.912890498E0
1.445703463E1,4.763095093E-1,3.128943329E0,6.630611572E0,7.347255741E0
1.446706663E1,-1.957928467E-1,3.064427490E0,7.352111206E0,7.967596242E0
1.447709863E1,-9.735754395E-1,2.957549744E0,8.131989441E0,8.707709337E0
1.448712963E1,-1.540746002E0,2.904709625E0,8.917256470E0,9.504141160E0
1.449716163E1,-1.791175232E0,2.885549469E0,9.507329407E0,1.009574251E1
1.450719362E1,-1.889969788E0,2.784958649E0,1.001507355E1,1.056549472E1
1.451722562E1,-1.851499786E0,2.806663513E0,1.064930466E1,1.116750201E1
1.452725763E1,-1.783391418E0,2.739453278E0,1.138427628E1,1.184427438E1
1.453728963E1,-1.667532349E0,2.753074951E0,1.151375702E1,1.195519496E1
1.454732063E1,-2.195035400E0,2.997516632E0,1.184471878E1,1.241372826E1
1.455735263E1,-3.121758270E0,3.336860962E0,1.218017120E1,1.300909629E1
1.456738463E1,-3.832480316E0,3.596271515E0,1.201147202E1,1.311093186E1
1.457741663E1,-4.314777374E0,3.843407593E0,1.169607788E1,1.304558636E1
1.458744863E1,-4.691843262E0,3.880829773E0,1.149085464E1,1.300438285E1
1.459748063E1,-4.885690155E0,3.843557281E0,1.122650436E1,1.283266539E1
1.460751163E1,-4.790637817E0,3.901037750E0,1.091485245E1,1.254202177E1
1.461754363E1,-4.718487854E0,4.038601685E0,1.070334229E1,1.237481181E1
1.462757562E1,-4.806804199E0,4.062551880E0,1.040516235E1,1.216047277E1
1.463760762E1,-4.945266266E0,3.996239777E0,1.007854156E1,1.191648400E1
1.464763963E1,-5.126688995E0,3.955973511E0,9.741891632E0,1.169773991E1
1.465767163E1,-5.236859894E0,4.105961609E0,9.326505432E0,1.145719537E1
1.466770363E1,-5.188061371E0,4.259542236E0,8.799451447E0,1.106752125E1
1.467773463E1,-5.041665802E0,4.314777374E0,8.331225128E0,1.065105675E1
1.468776663E1,-5.040168915E0,4.183650055E0,8.041577454E0,1.037175002E1
1.469779863E1,-5.281167755E0,3.941902771E0,8.008945312E0,1.037171805E1
1.470783063E1,-5.199737091E0,3.837420044E0,8.028554535E0,1.030634495E1
1.471786263E1,-4.762646027E0,3.855532379E0,8.100105743E0,1.015675343E1
1.472789463E1,-4.544250183E0,3.854185181E0,8.091124420E0,1.004844503E1
1.473792563E1,-4.672234039E0,3.803141327E0,8.156089325E0,1.013979526E1
1.474795762E1,-4.848417664E0,3.694617004E0,8.111931152E0,1.014695894E1
1.475798962E1,-5.154830475E0,3.522774353E0,8.273594971E0,1.036506585E1
1.476802163E1,-5.508544922E0,3.267854462E0,8.522826691E0,1.066121544E1
1.477805363E1,-5.654790802E0,3.024161224E0,8.631500702E0,1.075290726E1
1.478808563E1,-5.450016632E0,2.872975616E0,8.666527863E0,1.063322037E1
1.479811763E1,-5.110223236E0,2.810256042E0,8.471932526E0,1.028521080E1
1.480814896E1,-4.890480194E0,2.841690674E0,8.080047455E0,9.863020292E0
1.481818096E1,-4.721631317E0,3.049009552E0,7.692653046E0,9.527180718E0
1.482821296E1,-4.652475128E0,3.340154114E0,7.331154785E0,9.303116940E0
1.483824496E1,-4.790039062E0,3.634292450E0,6.953789520E0,9.192809392E0
1.484827696E1,-4.953499146E0,3.878584442E0,6.539600830E0,9.074522030E0
1.485830896E1,-5.036875763E0,4.032464447E0,6.123466187E0,8.895376614E0
1.486833996E1,-5.119953003E0,4.221371613E0,5.858217773E0,8.851701109E0
1.487837196E1,-5.143753510E0,4.456831970E0,5.772595825E0,8.924371907E0
1.488840396E1,-4.966222687E0,4.581672363E0,5.825735321E0,8.921562725E0
1.489843596E1,-4.654870148E0,4.568200378E0,6.257736969E0,9.038558666E0
1.490846796E1,-4.478237457E0,4.597389679E0,6.817123718E0,9.362893697E0
1.491849996E1,-4.542753296E0,4.623136139E0,7.153174896E0,9.652870369E0
1.492853196E1,-4.791086884E0,4.604724426E0,7.386988678E0,9.936075800E0
1.493856296E1,-4.908293152E0,4.575684814E0,7.470215607E0,1.004153148E1
1.494859496E1,-4.903054047E0,4.643194427E0,7.355254669E0,9.984936891E0
1.495862696E1,-4.724774780E0,4.648882599E0,7.196434937E0,9.783878676E0
1.496865896E1,-4.343667297E0,4.537065125E0,6.940766602E0,9.360910562E0
1.497869096E1,-3.834426270E0,4.488865356E0,6.583160248E0,8.842552564E0
1.498872296E1,-3.437152405E0,4.625980225E0,6.362668762E0,8.584711030E0
1.499875396E1,-3.107537842E0,4.805457001E0,6.228697357E0,8.458479721E0
1.500878596E1,-2.806513824E0,4.933440857E0,6.188880157E0,8.397475581E0
1.501881796E1,-2.520308990E0,4.930447083E0,6.290219421E0,8.380222325E0
1.502884996E1,-2.227517853E0,4.862638092E0,6.482868805E0,8.404443643E0
1.503888196E1,-1.844314728E0,4.800068207E0,6.675667877E0,8.426546933E0
1.504891396E1,-1.615889740E0,4.709057465E0,6.971303101E0,8.566527230E0
1.505894496E1,-1.741029510E0,4.648433533E0,7.383396149E0,8.896834086E0
1.506897696E1,-2.008822632E0,4.653822327E0,7.809110870E0,9.309975467E0
1.507900896E1,-2.124382324E0,4.697381744E0,7.959098969E0,9.482913682E0
1.508904096E1,-2.139351196E0,4.706063690E0,7.917784882E0,9.455959836E0
1.509907296E1,-2.140848083E0,4.652175751E0,7.885452118E0,9.402463764E0
1.510910496E1,-2.044298859E0,4.660857697E0,7.907156982E0,9.403503806E0
1.511913696E1,-1.971849518E0,4.747228088E0,8.123756561E0,9.613520984E0
1.512916796E1,-1.978286133E0,4.853058014E0,8.531808014E0,1.001286852E1
1.513919996E1,-2.115550690E0,4.975353699E0,8.998387756E0,1.049765123E1
1.514923196E1,-2.243235168E0,5.063071289E0,9.346114655E0,1.086354703E1
1.515926396E1,-2.206262054E0,5.089715881E0,9.419911194E0,1.093194982E1
1.516929596E1,-2.013313293E0,5.107379150E0,9.213191071E0,1.072481431E1
1.517932796E1,-1.940564575E0,5.067412262E0,8.906778259E0,1.042953292E1
1.518935896E1,-2.020947418E0,5.058880005E0,8.727002106E0,1.028771409E1
1.519939096E1,-2.160008240E0,5.148244171E0,8.681347046E0,1.032162004E1
1.520942296E1,-2.326312408E0,5.279221802E0,8.772058411E0,1.049909144E1
1.521945496E1,-2.479443970E0,5.297334137E0,9.000483398E0,1.073396911E1
1.522948696E1,-2.626138916E0,5.255570984E0,9.409432983E0,1.109301857E1
1.523951896E1,-2.585423584E0,5.112917633E0,9.604926453E0,1.118395967E1
1.524955096E1,-2.485880585E0,5.037474518E0,9.460626526E0,1.100269086E1
1.525958196E1,-2.263592834E0,5.181774445E0,8.930878143E0,1.057048832E1
1.526961396E1,-2.088606720E0,5.446873169E0,8.180189209E0,1.004719866E1
1.527964596E1,-2.056423645E0,5.738466797E0,7.577243042E0,9.724890308E0
1.528967796E1,-1.996697845E0,5.898933105E0,7.419620819E0,9.686846090E0
1.529970996E1,-2.064357147E0,5.836961975E0,7.633825378E0,9.828885259E0
1.530974196E1,-2.219135284E0,5.671855316E0,7.977810059E0,1.003692968E1
1.531977296E1,-2.401905212E0,5.486540680E0,8.353079681E0,1.027838594E1
1.532980496E1,-2.764750671E0,5.295088806E0,8.469836884E0,1.036435954E1
1.533983696E1,-3.147055664E0,5.025948486E0,8.150251465E0,1.007922202E1
1.534986896E1,-2.975811768E0,4.958887939E0,8.426726532E0,1.022035935E1
1.535990096E1,-2.540516968E0,5.087470551E0,8.727301483E0,1.041644729E1
1.536993296E1,-2.133962402E0,5.082830200E0,8.276139679E0,9.944015606E0
1.537996396E1,-1.771865387E0,4.891228638E0,7.500602417E0,9.128124734E0
1.538999596E1,-1.545236664E0,4.672234039E0,6.942712555E0,8.509922731E0
1.540002796E1,-1.344055023E0,4.446952515E0,6.549180908E0,8.029548004E0
1.541005996E1,-9.720785522E-1,4.189188538E0,6.207142181E0,7.551347653E0
1.542009196E1,-6.563850403E-1,3.968547363E0,5.854026489E0,7.102804772E0
1.543012396E1,-4.427792358E-1,3.868106232E0,5.763165436E0,6.955025170E0
1.544015596E1,-2.436932373E-1,3.924089813E0,5.998625793E0,7.172264542E0
1.545018696E1,-2.149530029E-1,4.117188263E0,6.316265259E0,7.542721711E0
1.546021896E1,-2.688409424E-1,4.371958466E0,6.689439240E0,7.995929816E0
1.547025096E1,-1.621128845E-1,4.516857147E0,6.945856018E0,8.286929160E0
1.548028296E1,-1.685494995E-1,4.679119720E0,7.253915405E0,8.633762737E0
1.549031496E1,-4.153862000E-1,4.823120270E0,7.466772766E0,8.898748809E0
1.550034696E1,-7.107220459E-1,4.693639526E0,6.937323761E0,8.406059647E0
1.551037796E1,-9.767189026E-1,4.485422516E0,6.014193420E0,7.565944585E0
1.552040996E1,-9.162446594E-1,4.688550110E0,5.813610535E0,7.524631144E0
1.553044196E1,-5.442681885E-1,5.227130127E0,6.306236115E0,8.209003055E0
1.554047396E1,-4.899311829E-1,5.517975311E0,6.852300568E0,8.811475879E0
1.555050596E1,-7.330256653E-1,5.238805847E0,7.184010773E0,8.921458631E0
1.556053796E1,-1.061891785E0,4.666845245E0,7.229665833E0,8.670359090E0
1.557056896E1,-1.363215179E0,4.121978302E0,7.164700928E0,8.377469793E0
1.558060096E1,-1.424886932E0,3.636687469E0,7.057823181E0,8.066515145E0
1.559063296E1,-1.185384979E0,3.326682129E0,6.895410919E0,7.747170018E0
1.560066496E1,-8.693920898E-1,3.163371735E0,6.656657410E0,7.421175864E0
1.561069696E1,-6.845265198E-1,3.137176208E0,6.266568604E0,7.041330356E0
1.562072896E1,-5.918692017E-1,3.253933411E0,5.676495667E0,6.569702797E0
1.563076096E1,-6.721023560E-1,3.328328705E0,5.126688995E0,6.149181539E0
1.564079196E1,-4.713697815E-1,3.450474701E0,4.626279602E0,5.790546441E0
1.565082396E1,3.677851868E-1,3.845503235E0,4.433630219E0,5.880496407E0
1.566085596E1,2.175276489E0,4.661157074E0,4.931644592E0,7.125961792E0
1.567088796E1,3.332969055E0,5.077291718E0,5.040168915E0,7.892456943E0
1.568091996E1,1.284927979E0,4.464316406E0,4.571643219E0,6.517751346E0
1.569095196E1,-1.170715485E0,3.999981995E0,5.367238770E0,6.795416302E0
1.570098296E1,-2.459235992E0,4.134701843E0,7.119345245E0,8.592361592E0
1.571101496E1,-3.406466217E0,4.955445099E0,8.759634247E0,1.062504778E1
1.572104696E1,-4.343218231E0,5.697751465E0,9.925709381E0,1.224122637E1
1.573107896E1,-5.170398102E0,6.308930511E0,1.074645264E1,1.349154791E1
1.574111096E1,-5.890999603E0,6.927144928E0,1.137754028E1,1.456494545E1
1.575114296E1,-6.453829193E0,7.321574707E0,1.168769531E1,1.522693630E1
1.576117496E1,-6.744674377E0,7.539970551E0,1.173275162E1,1.549190914E1
1.577120596E1,-6.536607056E0,7.798632660E0,1.188244034E1,1.564411364E1
1.578123796E1,-6.056405640E0,8.103249207E0,1.231444199E1,1.593700657E1
1.579126996E1,-5.483995972E0,8.259524231E0,1.276006531E1,1.615899808E1
1.580130208E1,-5.107828217E0,8.235124969E0,1.285107605E1,1.609525856E1
1.581133408E1,-5.001998291E0,8.101602631E0,1.285287231E1,1.599538305E1
1.582136608E1,-5.107828217E0,7.825277252E0,1.277862671E1,1.583092460E1
1.583139708E1,-5.164260864E0,7.582781525E0,1.227776825E1,1.532683135E1
1.584142908E1,-4.981341248E0,7.467371521E0,1.138502472E1,1.449807525E1
1.585146108E1,-4.648732910E0,7.479346619E0,1.035696259E1,1.359477905E1
1.586149308E1,-4.063150635E0,7.280559998E0,9.384884033E0,1.255355708E1
1.587152508E1,-3.564687195E0,6.917415161E0,8.601113892E0,1.159899942E1
1.588155708E1,-3.106490021E0,6.744824066E0,7.950566711E0,1.087908282E1
1.589158808E1,-2.574795685E0,6.642736359E0,7.484286346E0,1.033295995E1
1.590162008E1,-2.000889130E0,6.357279968E0,7.233108673E0,9.835467807E0
1.591165208E1,-1.858086090E0,6.142776031E0,6.997348938E0,9.494686590E0
1.592168408E1,-1.944606171E0,6.284980316E0,6.752458191E0,9.427521538E0
1.593171608E1,-1.614692230E0,6.284082184E0,6.730453949E0,9.348579050E0
1.594174808E1,-1.229094086E0,5.754782867E0,6.912026367E0,9.077681787E0
1.595178008E1,-7.219487000E-1,5.442681885E0,6.910080414E0,8.825712852E0
1.596181108E1,-1.462458801E-1,5.639073486E0,6.756799164E0,8.801981174E0
1.597184308E1,2.189945984E-1,5.801635437E0,6.828649750E0,8.963112728E0
1.598187508E1,5.846841431E-1,5.562133484E0,6.898404694E0,8.880719101E0
1.599190708E1,1.686692505E0,4.377347260E0,6.880591736E0,8.327583279E0
1.600193908E1,1.439107361E0,3.481011200E0,7.818990326E0,8.679002171E0
1.601197108E1,6.845265198E-1,3.770958252E0,8.219856720E0,9.069440291E0
1.602200208E1,9.466314697E-1,4.101171570E0,8.239316254E0,9.252137683E0
1.603203408E1,1.505569153E0,3.816613312E0,8.175848236E0,9.147555413E0
1.604206608E1,1.655108185E0,3.459456024E0,8.433462524E0,9.264475659E0
1.605209808E1,1.623074799E0,3.431913300E0,8.642427979E0,9.439489502E0
1.606213008E1,1.673968964E0,3.505709839E0,8.647966461E0,9.480479813E0
1.607216208E1,1.531016235E0,3.358266449E0,8.323441315E0,9.105033749E0
1.608219308E1,1.245709534E0,2.997217255E0,7.813002777E0,8.460385092E0
1.609222508E1,9.855505371E-1,2.679727478E0,6.871909790E0,7.441464465E0
1.610225708E1,5.680686951E-1,2.536325684E0,6.023623810E0,6.560464451E0
1.611228908E1,1.974394226E-1,2.493814087E0,5.481600952E0,6.025449363E0
1.612232108E1,6.735992432E-3,2.456092529E0,5.125042419E0,5.683176549E0
1.613235308E1,1.496887207E-3,2.462229767E0,5.172344055E0,5.728500737E0
1.614238408E1,-2.007325745E-1,2.402953033E0,5.716312866E0,6.204088139E0
1.615241608E1,-6.089337158E-1,2.606529694E0,6.368955688E0,6.908573939E0
1.616244808E1,-1.931433563E0,3.472628632E0,5.564977570E0,6.838023148E0
1.617248008E1,-3.558699646E0,6.575825500E-1,8.254883881E0,9.013316030E0
1.618251208E1,-2.658022614E0,3.055745544E0,9.261241150E0,1.010807859E1
1.619254408E1,-6.962920532E0,3.533701630E0,7.392078094E0,1.075230804E1
1.620257608E1,-9.347761230E0,7.724087677E0,1.144624741E1,1.667509371E1
1.621260708E1,-8.300239563E0,1.098370926E1,1.375699219E1,1.946254557E1
1.622263908E1,-7.897427216E0,8.364456024E0,1.321526871E1,1.752075364E1
1.623267108E1,-8.614136810E0,5.590274963E0,1.352527405E1,1.698197766E1
1.624270308E1,-8.796307983E0,6.014343109E0,1.412777115E1,1.769579822E1
1.625273508E1,-9.498946838E0,6.898404694E0,1.587478821E1,1.974403401E1
1.626276708E1,-9.576635284E0,7.325765991E0,1.836486008E1,2.196922567E1
1.627279808E1,-9.098679199E0,8.038583679E0,2.061842377E1,2.392747771E1
1.628283008E1,-8.333320770E0,9.743687897E0,2.060869400E1,2.427142265E1
1.629286208E1,-9.781858521E0,9.752968597E0,2.112586853E1,2.524098797E1
1.630289408E1,-7.499853973E0,9.757608948E0,1.946731750E1,2.303117871E1
1.631292608E1,-5.544619904E0,8.624016266E0,1.618688919E1,1.916068496E1
1.632295808E1,-4.015250244E0,7.461982727E0,1.296439041E1,1.548802245E1
1.633298908E1,-1.762584686E0,5.966592407E0,1.032507889E1,1.205463329E1
1.634302108E1,-5.019062805E-1,5.217100983E0,7.827073517E0,9.419826560E0
1.635305308E1,-1.051114197E0,4.301305389E0,6.739135895E0,8.063623361E0
1.636308508E1,-1.171164551E0,3.429967346E0,5.954168243E0,6.970539568E0
1.637311708E1,-1.459315338E0,2.101030884E0,5.538632355E0,6.100850792E0
1.638314908E1,-8.164022827E-1,2.478845215E0,5.804329834E0,6.364073468E0
1.639318108E1,5.884263611E-1,4.425547028E0,6.227499847E0,7.662471300E0
1.640321208E1,1.199006653E0,5.288203125E0,6.199957123E0,8.236636302E0
1.641324408E1,1.498234406E0,6.523135071E0,8.293204193E0,1.065707433E1
1.642327608E1,7.783813477E-3,5.452561340E0,7.097490692E0,8.950131836E0
1.643330808E1,5.312452698E-1,3.336561584E0,6.875951385E0,7.661173030E0
1.644334008E1,2.231709137E0,1.040486298E0,6.099965057E0,6.578199686E0
1.645337208E1,2.836750946E0,-6.137237549E-3,6.982230377E0,7.536493524E0
1.646340308E1,1.862277374E0,4.520599365E-1,7.416776733E0,7.660353276E0
1.647343508E1,4.805007935E-1,1.056652679E0,6.585106201E0,6.686629912E0
1.648346708E1,3.703298950E-1,1.119372253E0,5.538183289E0,5.662297468E0
1.649349908E1,9.976753235E-1,1.312470703E0,4.563859406E0,4.852499157E0
1.650353108E1,1.936822357E0,1.936522980E0,3.538042603E0,4.474276204E0
1.651356308E1,3.168760529E0,3.286415863E0,3.176843719E0,5.561826007E0
1.652359408E1,4.584516449E0,4.934937744E0,3.287763062E0,7.495384417E0
1.653362608E1,5.839955750E0,6.136339417E0,3.881278839E0,9.317943444E0
1.654365808E1,6.451434174E0,6.460116119E0,4.322261810E0,1.010128954E1
1.655369008E1,6.305337982E0,6.083050232E0,4.512216797E0,9.854993030E0
1.656372208E1,6.051016846E0,5.525010681E0,4.074377289E0,9.151016238E0
1.657375408E1,5.996380463E0,5.153632965E0,3.936513977E0,8.832477211E0
1.658378508E1,6.023474121E0,4.645140381E0,3.799099731E0,8.502513065E0
1.659381708E1,6.290818176E0,3.917204132E0,3.480262756E0,8.187252921E0
1.660384908E1,5.859415283E0,3.090922394E0,3.337459717E0,7.417896337E0
1.661388108E1,4.974754944E0,2.716401215E0,3.078498230E0,6.450129740E0
1.662391308E1,4.099524994E0,2.787203979E0,3.027454376E0,5.808622143E0
1.663394508E1,3.234324188E0,3.019969940E0,3.712429962E0,5.776089301E0
1.664397708E1,2.364782410E0,3.203638000E0,4.985532532E0,6.380519329E0
1.665400808E1,1.571282501E0,3.482657776E0,6.571334839E0,7.601333794E0
1.666404008E1,8.165519714E-1,3.644471283E0,8.398734741E0,9.191717647E0
1.667407208E1,3.173400879E-1,3.588487701E0,1.065678909E1,1.124922675E1
1.668410408E1,2.366578674E-1,3.411855011E0,1.297337173E1,1.341659926E1
1.669413608E1,5.234614563E-1,3.371588745E0,1.530073196E1,1.567654366E1
1.670416808E1,8.848100281E-1,3.276686096E0,1.709460159E1,1.742828059E1
1.671419908E1,1.004261627E0,3.298840027E0,1.829750015E1,1.861959717E1
1.672423108E1,8.026309204E-1,3.643423462E0,1.870540192E1,1.907382531E1
1.673426308E1,2.233355713E-1,4.085304565E0,1.807640991E1,1.853365014E1
1.674429508E1,-5.236111450E-1,4.398902435E0,1.672666672E1,1.730334912E1
1.675432708E1,-1.442550201E0,4.457580414E0,1.484702545E1,1.556872310E1
1.676435908E1,-2.578687592E0,4.276007996E0,1.299762131E1,1.392379380E1
1.677439008E1,-3.589086456E0,3.874243469E0,1.133338211E1,1.250347368E1
1.678442208E1,-4.993615723E0,3.108286285E0,9.723330231E0,1.136401304E1
1.679445408E1,-5.145549774E0,4.202660522E0,8.598718872E0,1.086632432E1
1.680448663E1,-5.099295959E0,5.159620514E0,7.230264587E0,1.024213011E1
1.681451863E1,-5.380561066E0,5.094805298E0,5.608087921E0,9.292907432E0
1.682455063E1,-5.132826233E0,4.979395294E0,4.891378326E0,8.664055896E0
1.683458163E1,-4.165537720E0,5.302423553E0,5.164560242E0,8.493531805E0
1.684461362E1,-2.734962616E0,5.758974152E0,5.737418976E0,8.576933035E0
1.685464562E1,-7.271878052E-1,6.030060425E0,5.666316833E0,8.306478032E0
