"Time (s)","Acceleration x (m/s^2)","Acceleration y (m/s^2)","Acceleration z (m/s^2)","Absolute acceleration (m/s^2)"
1.573016657E-2,4.896617432E0,7.045099640E0,5.752387848E0,1.032958165E1
2.576116659E-2,5.659431152E0,6.661297760E0,6.860832825E0,1.111184395E1
3.579316661E-2,5.955216064E0,5.955814819E0,7.895780640E0,1.154468191E1
4.582416662E-2,5.576204224E0,5.518274689E0,8.382268982E0,1.148075966E1
5.585616664E-2,5.111570435E0,5.477858734E0,8.513545990E0,1.134087977E1
6.588716665E-2,4.460424500E0,5.731132050E0,8.529862061E0,1.120266968E1
7.591916667E-2,3.359314270E0,6.056705017E0,8.481662292E0,1.095021750E1
8.595016669E-2,2.292183380E0,6.187233582E0,8.017178192E0,1.038321290E1
9.598116647E-2,2.119292908E0,6.148913269E0,7.251370697E0,9.740786098E0
1.060131665E-1,2.771187286E0,6.073619843E0,6.614594879E0,9.397936070E0
1.160441665E-1,3.617078247E0,5.979166260E0,6.355932770E0,9.446246111E0
1.260761665E-1,4.105811920E0,5.856720886E0,6.365213470E0,9.574696527E0
1.361071665E-1,4.106111298E0,5.647605743E0,6.551875305E0,9.575106821E0
1.461391666E-1,3.940256195E0,5.345833282E0,6.925198975E0,9.594890995E0
1.561701666E-1,3.612138519E0,4.935237122E0,7.150630188E0,9.409336970E0
1.662011666E-1,3.510200500E0,4.806055756E0,7.307953033E0,9.424747053E0
1.762331666E-1,3.468437347E0,4.980592804E0,7.657775574E0,9.771278783E0
1.862641666E-1,3.118465118E0,5.276078339E0,8.143365784E0,1.019196907E1
1.962965832E-1,2.675685883E0,5.379513245E0,8.451425171E0,1.036942839E1
2.063275832E-1,2.393522644E0,5.332211609E0,8.692124634E0,1.047446714E1
2.163595832E-1,2.314636688E0,5.229974213E0,8.828041992E0,1.051876888E1
2.263905832E-1,2.373464355E0,5.133275299E0,8.707841949E0,1.038317677E1
2.364215832E-1,2.411485291E0,4.986430664E0,8.313861237E0,9.989997034E0
2.464535832E-1,2.548001404E0,4.919220428E0,7.892637177E0,9.642860695E0
2.564845833E-1,2.765499115E0,4.919519806E0,7.588619385E0,9.457103396E0
2.665165833E-1,2.857857056E0,5.048102417E0,7.407496033E0,9.408596199E0
2.765475833E-1,2.840792542E0,5.198090515E0,7.319029999E0,9.415861479E0
2.865785833E-1,2.748883667E0,5.307812347E0,7.295229492E0,9.431309913E0
2.966105833E-1,2.551444244E0,5.417534180E0,7.383545837E0,9.506644700E0
3.066415833E-1,2.518512726E0,5.446573792E0,7.509134674E0,9.612240944E0
3.166735834E-1,2.523751831E0,5.276377716E0,7.517217865E0,9.524602330E0
3.267045831E-1,2.426154785E0,5.162913666E0,7.483238525E0,9.409610161E0
3.367365832E-1,2.368824005E0,5.175637207E0,7.579638062E0,9.478895548E0
3.467675832E-1,2.334994354E0,5.157225494E0,7.707023163E0,9.562812320E0
3.567985832E-1,2.415227509E0,5.085823975E0,7.803422699E0,9.622491114E0
3.668305832E-1,2.576442261E0,5.049150238E0,7.921377411E0,9.740646433E0
3.768615832E-1,2.617307281E0,5.125641174E0,8.028105469E0,9.877903233E0
3.868935832E-1,2.487078094E0,5.267995148E0,8.174800415E0,1.003816179E1
3.969245832E-1,2.318378906E0,5.351820831E0,8.357720032E0,1.019158236E1
4.069565833E-1,2.118993530E0,5.354515228E0,8.495283966E0,1.026308027E1
4.169875833E-1,1.817520447E0,5.200335846E0,8.377928009E0,1.002679167E1
4.270185833E-1,1.556463318E0,4.916376343E0,8.129893799E0,9.627487086E0
4.370505833E-1,1.566941528E0,4.842130737E0,8.079897766E0,9.549150943E0
4.470815833E-1,1.701960754E0,5.028792572E0,8.176147614E0,9.748580150E0
4.571135833E-1,1.843117218E0,5.273383942E0,8.193810883E0,9.916864225E0
4.671445834E-1,1.948198700E0,5.385500793E0,8.195906525E0,9.998598938E0
4.771765831E-1,2.060016174E0,5.345833282E0,8.222102051E0,1.002120563E1
4.872075832E-1,2.135159912E0,5.265001373E0,8.299940186E0,1.005823814E1
4.972385832E-1,2.211800537E0,5.251978455E0,8.404422913E0,1.015429288E1
5.072705832E-1,2.120640106E0,5.193300476E0,8.366102600E0,1.007269363E1
5.173015832E-1,2.003583527E0,5.112618256E0,8.316855011E0,9.966107046E0
5.273335832E-1,1.917662201E0,5.088967438E0,8.334368591E0,9.951719335E0
5.373645832E-1,1.821711731E0,5.115013275E0,8.249794464E0,9.876289948E0
5.473955832E-1,1.791624298E0,5.166057129E0,8.111631775E0,9.782465637E0
5.574275833E-1,1.791773987E0,5.254672852E0,7.971074066E0,9.713910776E0
5.674585833E-1,1.834285583E0,5.382806396E0,7.855813751E0,9.698093524E0
5.774905833E-1,1.898502045E0,5.477110291E0,7.816744995E0,9.731626250E0
5.875215833E-1,1.940265198E0,5.537135468E0,7.882757721E0,9.826615262E0
5.975535833E-1,1.979633331E0,5.545068970E0,7.870632935E0,9.829221780E0
6.075845833E-1,1.975292358E0,5.517975311E0,7.826774139E0,9.777945841E0
6.176155834E-1,1.930834808E0,5.503455505E0,7.893834686E0,9.814722187E0
6.276475831E-1,1.932481384E0,5.478008423E0,8.006250916E0,9.891567839E0
6.376785832E-1,1.967358856E0,5.357059937E0,8.059240723E0,9.875219140E0
6.477105832E-1,2.125430145E0,5.274581451E0,8.152347107E0,9.939790045E0
6.577415832E-1,2.237397308E0,5.296735382E0,8.297994232E0,1.009544752E1
6.677735832E-1,2.275418243E0,5.295388184E0,8.375383301E0,1.016689282E1
6.778045832E-1,2.272125092E0,5.269492035E0,8.352630615E0,1.013392998E1
6.878355832E-1,2.171534271E0,5.220693512E0,8.256081390E0,1.000670184E1
6.978675833E-1,2.104773102E0,5.201832733E0,8.223299561E0,9.955490408E0
7.078985833E-1,2.075284424E0,5.324727173E0,8.246800690E0,1.003340653E1
7.179305833E-1,2.005978546E0,5.483995972E0,8.310867462E0,1.015719842E1
7.279615833E-1,1.913770294E0,5.553152161E0,8.295000458E0,1.016400749E1
7.379935833E-1,1.830693054E0,5.525908813E0,8.186625824E0,1.004529480E1
7.480245833E-1,1.760489044E0,5.507048035E0,8.115224304E0,9.964123907E0
7.580555833E-1,1.747017059E0,5.518723755E0,8.042176208E0,9.908833365E0
7.680875831E-1,1.704206085E0,5.623056793E0,8.030949554E0,9.950841011E0
7.781185831E-1,1.682201843E0,5.767656097E0,8.158933411E0,1.013231732E1
7.881505832E-1,1.629212036E0,5.838009796E0,8.197852478E0,1.019516922E1
7.981815832E-1,1.581910400E0,5.703140259E0,8.091274109E0,1.002481751E1
8.082135832E-1,1.526824951E0,5.567671967E0,8.061336365E0,9.915407684E0
8.182445832E-1,1.516945496E0,5.526058502E0,8.079299011E0,9.905226838E0
8.282755832E-1,1.503922577E0,5.448370056E0,8.006550293E0,9.800579931E0
8.383075832E-1,1.468895416E0,5.324727173E0,7.829618225E0,9.581925420E0
8.483385833E-1,1.433718567E0,5.275629272E0,7.688761139E0,9.434238761E0
8.583705833E-1,1.409169617E0,5.306465149E0,7.568860474E0,9.350506952E0
8.684015833E-1,1.388063507E0,5.295837250E0,7.411986694E0,9.214670869E0
8.784325833E-1,1.461410980E0,5.219645691E0,7.265591125E0,9.064724905E0
8.884645833E-1,1.558708649E0,5.159470825E0,7.226073303E0,9.014757192E0
8.984955833E-1,1.618135071E0,5.189408569E0,7.281607819E0,9.086811037E0
9.085275833E-1,1.636995850E0,5.262905731E0,7.317982178E0,9.161375186E0
9.185585831E-1,1.641785889E0,5.290747833E0,7.348668365E0,9.202738738E0
9.285905831E-1,1.662592621E0,5.262157288E0,7.381599884E0,9.216427203E0
9.386215832E-1,1.652264099E0,5.188959503E0,7.386240234E0,9.176699961E0
9.486525832E-1,1.633553009E0,5.087470551E0,7.328909454E0,9.069937476E0
9.586845832E-1,1.663790131E0,4.978048096E0,7.219636688E0,8.925934929E0
9.687155832E-1,1.765877838E0,4.973557434E0,7.294331360E0,9.003436459E0
9.787475832E-1,1.915117493E0,5.021158447E0,7.477999420E0,9.208701455E0
9.887785832E-1,2.097887421E0,5.058281250E0,7.689210205E0,9.439877881E0
9.988105833E-1,2.275867310E0,5.047653351E0,7.859855347E0,9.614348778E0
1.008841583E0,2.407743073E0,4.978796539E0,8.023764496E0,9.745072517E0
1.018872583E0,2.454595642E0,4.873565369E0,8.175399170E0,9.829233478E0
1.028904583E0,2.543211365E0,4.722978516E0,8.351732483E0,9.926020631E0
1.038935583E0,2.686463470E0,4.581372986E0,8.596024475E0,1.010434071E1
1.048967583E0,2.806214447E0,4.463717651E0,8.817414093E0,1.027357806E1
1.058998583E0,2.869981842E0,4.338577881E0,9.055868225E0,1.044360106E1
1.069030583E0,2.866089935E0,4.215384064E0,9.340576172E0,1.064097258E1
1.079061583E0,2.791245575E0,4.111500092E0,9.652527466E0,1.085664641E1
1.089092583E0,2.688409424E0,3.935615845E0,9.861792297E0,1.095315318E1
1.099124583E0,2.592758331E0,3.751498718E0,9.967322845E0,1.096100648E1
1.109155583E0,2.521057434E0,3.592080231E0,9.993518372E0,1.091463148E1
1.119187583E0,2.500250702E0,3.468137970E0,9.917775879E0,1.080007004E1
1.129218583E0,2.480342102E0,3.347788239E0,9.799521790E0,1.064849334E1
1.139250583E0,2.434237976E0,3.255280609E0,9.697733459E0,1.051515100E1
1.149281583E0,2.329904938E0,3.257975006E0,9.613009644E0,1.041406801E1
1.159312583E0,2.183808746E0,3.407514038E0,9.575737152E0,1.039590855E1
1.169344583E0,2.009271698E0,3.554208984E0,9.520651703E0,1.035916904E1
1.179375583E0,1.865271149E0,3.645219727E0,9.425749054E0,1.027675087E1
1.189407583E0,1.782942352E0,3.644620972E0,9.294921112E0,1.014187872E1
1.199438292E0,1.743574219E0,3.526965637E0,9.218879242E0,1.002333638E1
1.209469292E0,1.759291534E0,3.427722015E0,9.211843872E0,9.985111539E0
1.219501292E0,1.815275116E0,3.391048279E0,9.342073059E0,1.010290855E1
1.229532292E0,1.832189941E0,3.332220612E0,9.485025787E0,1.021892012E1
1.239564292E0,1.795516205E0,3.231180725E0,9.591304779E0,1.027898510E1
1.249595292E0,1.609004059E0,3.184627533E0,9.703421631E0,1.033862360E1
1.259627291E0,1.399140472E0,3.156635742E0,9.735455017E0,1.032961895E1
1.269658291E0,1.273851013E0,3.145109711E0,9.685908051E0,1.026310023E1
1.279689291E0,1.231189728E0,3.151097260E0,9.585017853E0,1.016453685E1
1.289721292E0,1.268312531E0,3.175945587E0,9.536219330E0,1.013087983E1
1.299752292E0,1.304088135E0,3.253334656E0,9.525142365E0,1.014954035E1
1.309784292E0,1.304986267E0,3.305576019E0,9.484277344E0,1.012824460E1
1.319815292E0,1.208736420E0,3.342848511E0,9.511221313E0,1.015376830E1
1.329847292E0,1.050365753E0,3.366349640E0,9.518556061E0,1.015078754E1
1.339878292E0,9.538165283E-1,3.342249756E0,9.455836487E0,1.007438549E1
1.349909292E0,9.059161377E-1,3.293451233E0,9.407786407E0,1.000869373E1
1.359941292E0,9.319619751E-1,3.323688354E0,9.458081818E0,1.006830517E1
1.369972292E0,1.030457153E0,3.334765320E0,9.578730927E0,1.019483143E1
1.380004292E0,1.181642761E0,3.364253998E0,9.708511047E0,1.034261434E1
1.390035292E0,1.213825836E0,3.265160065E0,9.767189026E0,1.036979387E1
1.400066292E0,1.211879883E0,3.026256866E0,9.767338715E0,1.029697961E1
1.410098291E0,1.215622101E0,2.854414215E0,9.619146881E0,1.010709673E1
1.420129291E0,9.848020935E-1,2.733166351E0,9.324858856E0,9.766935351E0
1.430161292E0,8.485853577E-1,2.608775024E0,9.238039398E0,9.636761705E0
1.440192292E0,9.509724426E-1,2.554587708E0,9.446555786E0,9.831972496E0
1.450224292E0,1.056203613E0,2.760559387E0,9.400002594E0,9.853745631E0
1.460255292E0,1.342258759E0,3.304977264E0,9.134155426E0,9.805984328E0
1.470286292E0,8.506809998E-1,2.812351685E0,8.931177521E0,9.402069563E0
1.480318292E0,1.013692017E0,2.609673157E0,9.209149475E0,9.625299972E0
1.490349292E0,8.002359009E-1,2.563269653E0,9.265731812E0,9.646995118E0
1.500381292E0,5.378315735E-1,2.496209106E0,9.236243134E0,9.582719339E0
1.510412292E0,4.454736328E-1,2.449655914E0,9.190887451E0,9.522167453E0
1.520444292E0,4.191284180E-2,2.267185364E0,8.960366821E0,9.242838294E0
1.530475292E0,-5.016069031E-1,1.900597687E0,8.222251740E0,8.453952018E0
1.540506292E0,-6.477030945E-1,1.496138763E0,7.528294830E0,7.702802967E0
1.550538292E0,-5.066963196E-1,1.234333191E0,7.001540222E0,7.127544112E0
1.560569291E0,-1.050814819E-1,1.196911011E0,6.818470917E0,6.923523939E0
1.570601291E0,5.291496277E-1,1.567240906E0,7.870632935E0,8.042580816E0
1.580632292E0,8.707392883E-1,1.910626831E0,8.537496185E0,8.791900984E0
1.590663292E0,5.942642212E-1,2.164199524E0,8.926237793E0,9.204055122E0
1.600695292E0,5.164260864E-1,2.401156769E0,9.355994110E0,9.672997236E0
1.610726292E0,6.384223938E-1,2.405946808E0,9.876461792E0,1.018531594E1
1.620758292E0,-2.284249878E-1,2.286046143E0,1.061622345E1,1.086196968E1
1.630789292E0,-6.358776855E-1,1.862726440E0,1.098939743E1,1.116427096E1
1.640821292E0,-3.338058472E-2,1.089284821E0,1.052940399E1,1.058565086E1
1.650852292E0,3.951782227E-1,6.156697083E-1,1.020442978E1,1.023062081E1
1.660883292E0,2.093396759E0,5.831872559E-1,1.172915909E1,1.192877153E1
1.670915292E0,6.919959869E0,1.866468658E0,1.238329880E1,1.430788730E1
1.680946292E0,4.854854279E0,3.284020844E0,9.076674957E0,1.080464859E1
1.690978292E0,1.592837677E0,3.084186401E0,5.603148193E0,6.591252332E0
1.701009292E0,2.976410522E0,3.160078583E0,7.128625946E0,8.346401867E0
1.711041291E0,3.314856720E0,4.206851807E0,9.328002319E0,1.075627744E1
1.721072291E0,1.998943176E0,5.257067871E0,7.788004761E0,9.606537075E0
1.731103292E0,9.229806519E-1,5.596112823E0,3.107986908E0,6.467453489E0
1.741135292E0,8.940907288E-1,4.607718201E0,1.075363770E0,4.815274913E0
1.751166292E0,2.412682800E0,4.797074432E0,2.383194122E0,5.874740473E0
1.761198292E0,4.144730988E0,6.945856018E0,5.823939056E0,9.967044543E0
1.771229292E0,2.930007019E0,6.207740936E0,9.412726135E0,1.164990996E1
1.781261292E0,-8.981323242E-4,2.925216980E0,1.169832321E1,1.205850991E1
1.791292292E0,-1.259480896E0,1.453776855E0,1.281979111E1,1.296328675E1
1.801323292E0,-9.601034546E-1,1.962269440E0,1.268402344E1,1.287077117E1
1.811355292E0,2.805166626E-1,3.008892975E0,1.246383133E1,1.282494514E1
1.821386292E0,9.988728333E-1,3.754193115E0,1.181867294E1,1.244076939E1
1.831418292E0,7.596702576E-1,3.921694794E0,1.046413971E1,1.120067002E1
1.841449292E0,3.888912964E-1,3.888314209E0,9.210796051E0,1.000544790E1
1.851480292E0,1.438508606E-1,4.202211456E0,8.063282318E0,9.093722886E0
1.861512291E0,-2.154020691E-1,4.723277893E0,7.604785767E0,8.954804222E0
1.871543291E0,-6.722520447E-1,5.096302185E0,7.950267334E0,9.467363385E0
1.881575292E0,-1.192869415E0,4.957840118E0,8.744515686E0,1.012273040E1
1.891606292E0,-1.201251984E0,4.530029755E0,9.316326599E0,1.042871599E1
1.901638292E0,-1.093925171E0,4.341871033E0,9.770182800E0,1.074732470E1
1.911669292E0,-1.037043457E0,4.328249359E0,1.000249969E1,1.094802273E1
1.921700292E0,-9.879455566E-1,4.451293488E0,9.843081207E0,1.084787066E1
1.931732292E0,-1.361867981E0,4.747826843E0,9.696086884E0,1.088166554E1
1.941763292E0,-1.784439240E0,4.874912567E0,1.010039612E1,1.135636375E1
1.951795292E0,-2.014959869E0,5.050796814E0,1.066277664E1,1.196935326E1
1.961826292E0,-2.240840149E0,5.270839233E0,1.074809921E1,1.217886479E1
1.971858292E0,-2.115251312E0,5.138215027E0,1.060873901E1,1.197584591E1
1.981889292E0,-1.848655701E0,4.966222687E0,1.069421127E1,1.193511837E1
1.991920292E0,-1.656156006E0,4.748724976E0,1.096784225E1,1.206593574E1
2.001952291E0,-1.565294952E0,4.598886566E0,1.105406296E1,1.207444466E1
2.011983291E0,-1.597028961E0,4.490960999E0,1.087114334E1,1.187017227E1
2.022015291E0,-1.450783081E0,4.324956207E0,1.025966492E1,1.122812282E1
2.032046292E0,-1.088237000E0,4.345613251E0,9.311237183E0,1.033284821E1
2.042078292E0,-7.616162109E-1,4.600533142E0,8.490643616E0,9.686898031E0
2.052109292E0,-6.286926270E-1,4.686005402E0,7.914940796E0,9.219554699E0
2.062140292E0,-7.125183105E-1,4.596940613E0,7.555837555E0,8.873005494E0
2.072172292E0,-7.602690125E-1,4.468807068E0,7.489974518E0,8.754882287E0
2.082203292E0,-9.241781616E-1,4.414020996E0,7.577841797E0,8.818240920E0
2.092235292E0,-1.274449768E0,4.409829712E0,7.653733978E0,8.924710870E0
2.102266292E0,-1.564546509E0,4.343667297E0,7.326664124E0,8.659980286E0
2.112297292E0,-1.699416046E0,4.297862549E0,6.896458740E0,8.301854042E0
2.122329292E0,-1.483415222E0,4.205055542E0,6.880741425E0,8.199244806E0
2.132360292E0,-1.265468445E0,3.983516235E0,7.109914856E0,8.247466353E0
2.142392292E0,-1.381776581E0,3.907474365E0,7.271728363E0,8.369928065E0
2.152423291E0,-1.649420013E0,3.624113617E0,6.965614929E0,8.023376922E0
2.162455291E0,-1.543739777E0,3.350482635E0,6.475534058E0,7.452610799E0
2.172486291E0,-1.310375061E0,3.218157806E0,6.125561829E0,7.042452001E0
2.182517292E0,-1.068627777E0,2.919379120E0,6.118975525E0,6.863424892E0
2.192549292E0,-4.876858521E-1,2.487527161E0,6.419550476E0,6.901902432E0
2.202579792E0,-3.213816833E-1,2.439028015E0,6.221362610E0,6.690104376E0
2.212611792E0,-5.203179932E-1,2.803669739E0,5.438191223E0,6.140457523E0
2.222642792E0,-7.758366394E-1,2.796784058E0,4.624333649E0,5.459705601E0
2.232673791E0,-1.059945831E0,2.354453888E0,3.685336304E0,4.499849103E0
2.242705791E0,-1.451531525E0,1.772763519E0,3.110980682E0,3.863655661E0
2.252736792E0,-1.182540894E0,1.188528442E0,3.461701355E0,3.846346201E0
2.262768792E0,-1.225052490E0,1.076261902E0,3.736380157E0,4.076718039E0
2.272799792E0,-2.300266571E0,1.364263000E0,3.251239014E0,4.209868758E0
2.282831792E0,-2.891537018E0,1.980381775E0,2.961741028E0,4.588551865E0
2.292862792E0,-3.522175598E0,2.970123596E0,3.151696014E0,5.582162922E0
2.302893792E0,-3.830534363E0,3.892056427E0,3.232677612E0,6.345967324E0
2.312925792E0,-3.646566925E0,4.380041656E0,4.054917755E0,6.994610300E0
2.322956792E0,-3.645219727E0,4.438719635E0,5.346132660E0,7.846718631E0
2.332988792E0,-4.113146667E0,4.187841339E0,6.439608765E0,8.713469552E0
2.343019792E0,-4.180207214E0,3.512445831E0,7.430099030E0,9.220508644E0
2.353051792E0,-3.977828064E0,2.762205963E0,8.379424896E0,9.678205385E0
2.363082792E0,-3.469784546E0,2.711760864E0,9.051227875E0,1.006567324E1
2.373113792E0,-3.153941345E0,2.737207947E0,9.343420258E0,1.023421494E1
2.383145791E0,-3.515289917E0,2.127076721E0,9.971963196E0,1.078525700E1
2.393176791E0,-3.195854187E0,1.944306793E0,1.215292786E1,1.271563873E1
2.403208792E0,-2.956801300E0,2.216291199E0,1.405891434E1,1.453642642E1
2.413239792E0,-3.319497070E0,1.758992157E0,1.409094772E1,1.458313828E1
2.423271792E0,-3.373085632E0,1.321302338E0,1.413540527E1,1.459223180E1
2.433302792E0,-3.442840576E0,1.383123779E0,1.415232010E1,1.463059626E1
2.443333792E0,-3.705544281E0,1.608704681E0,1.358559860E1,1.417347800E1
2.453365792E0,-4.290078735E0,1.852547607E0,1.272848099E1,1.355916430E1
2.463396792E0,-5.277425537E0,2.439626770E0,1.213092361E1,1.345222312E1
2.473428792E0,-6.394402771E0,3.138373718E0,1.184037781E1,1.381782628E1
2.483459792E0,-6.922803955E0,3.445834351E0,1.126452530E1,1.366340072E1
2.493491792E0,-6.649622040E0,3.478316803E0,1.073387878E1,1.309703458E1
2.503522792E0,-6.408623199E0,3.522624664E0,1.059661423E1,1.287507549E1
2.513553792E0,-6.006559296E0,3.469934235E0,1.065349594E1,1.271283501E1
2.523585791E0,-5.391787720E0,3.144361267E0,1.104568039E1,1.268721553E1
2.533616791E0,-4.843627625E0,2.681972809E0,1.194740524E1,1.316792310E1
2.543648791E0,-3.146756287E0,2.417323151E0,1.400218231E1,1.455357811E1
2.553679792E0,-3.206033020E0,2.507435760E0,1.423315201E1,1.480366502E1
2.563710792E0,-3.488196259E0,2.348765717E0,1.322350159E1,1.387606600E1
2.573742792E0,-2.680625610E0,2.252665558E0,1.297891022E1,1.344292997E1
2.583773792E0,-2.960842896E0,2.391427002E0,1.281619858E1,1.336938517E1
2.593805792E0,-2.882855072E0,2.786156158E0,1.230411346E1,1.294081634E1
2.603836792E0,-2.554138641E0,2.889441376E0,1.167078049E1,1.229144470E1
2.613868792E0,-2.308948517E0,2.847827911E0,1.116588043E1,1.175237222E1
2.623899792E0,-2.136058044E0,3.163072357E0,1.087144272E1,1.152198062E1
2.633930792E0,-1.987866211E0,3.482807465E0,1.045321243E1,1.119603546E1
2.643962792E0,-2.204316101E0,3.818259888E0,9.990823975E0,1.092037919E1
2.653993792E0,-2.161654816E0,4.177812195E0,9.938732300E0,1.099569307E1
2.664025792E0,-1.960323486E0,4.044289856E0,1.024858795E1,1.119074187E1
2.674056791E0,-1.469494171E0,3.549119568E0,1.047970734E1,1.116153792E1
2.684088791E0,-9.443861389E-1,2.969225464E0,1.040815613E1,1.086452387E1
2.694119792E0,-1.081501007E0,2.433040466E0,1.078147980E1,1.110538774E1
2.704150792E0,-1.387315063E0,1.953737183E0,1.175625275E1,1.199796694E1
2.714182792E0,-1.821562042E0,1.478325806E0,1.287038589E1,1.308244505E1
2.724213792E0,-2.187401276E0,1.150058441E0,1.369142853E1,1.391267673E1
2.734245792E0,-2.021546173E0,9.333091736E-1,1.349952759E1,1.368192092E1
2.744276792E0,-1.780846710E0,6.753955078E-1,1.257909164E1,1.272246520E1
2.754308792E0,-1.432521057E0,5.343887329E-1,1.160147461E1,1.170179050E1
2.764339792E0,-1.241518250E0,3.570075989E-1,1.099852844E1,1.107413427E1
2.774370792E0,-1.204844513E0,-9.026229858E-2,1.071561676E1,1.078351706E1
2.784402792E0,-9.903405762E-1,-8.443940735E-1,1.064990341E1,1.072912944E1
2.794433792E0,-1.098116455E0,-9.909393311E-1,1.079031143E1,1.089121854E1
2.804465792E0,-1.327289886E0,-1.008602600E0,1.045740372E1,1.058944145E1
2.814496792E0,-9.235794067E-1,-1.569186859E0,1.001881577E1,1.018292766E1
2.824528791E0,-5.170248413E-1,-1.813029785E0,9.563013611E0,9.747082692E0
2.834559791E0,-4.393363953E-1,-1.889071655E0,8.684340820E0,8.898279815E0
2.844590792E0,-6.334826660E-1,-1.723665619E0,7.788902893E0,8.002457856E0
2.854622792E0,-6.569837952E-1,-1.414558411E0,7.551197205E0,7.710588981E0
2.864653792E0,-6.233038330E-1,-1.310524750E0,7.490573273E0,7.629853914E0
2.874685792E0,-6.656657410E-1,-1.239871674E0,7.889942780E0,8.014461286E0
2.884716792E0,-6.921606445E-1,-1.358724518E0,8.553213501E0,8.688076880E0
2.894748792E0,-5.767506409E-1,-1.394051056E0,8.954678650E0,9.080874923E0
2.904779792E0,-5.179229736E-1,-1.327140198E0,9.496102753E0,9.602370166E0
2.914810792E0,-4.267625427E-1,-1.353036346E0,9.662257233E0,9.765861378E0
2.924842792E0,-2.695893860E-1,-1.425785065E0,9.438921661E0,9.549805423E0
2.934873792E0,-2.095642090E-2,-1.273252258E0,9.288634186E0,9.375517880E0
2.944905792E0,1.167572021E-1,-1.191222839E0,8.877738647E0,8.958062714E0
2.954936792E0,2.258802795E-1,-1.100511475E0,8.489745483E0,8.563756523E0
2.964968791E0,2.670446777E-1,-9.596543884E-1,8.364755402E0,8.423857925E0
2.974999791E0,2.903961182E-2,-8.155041504E-1,8.596024475E0,8.634670063E0
2.985030791E0,-2.204914856E-1,-6.689588928E-1,8.715775452E0,8.744190312E0
2.995062792E0,-2.514770508E-1,-4.028123474E-1,8.193212128E0,8.206961890E0
3.005093792E0,-2.531236267E-1,-2.671943665E-1,7.805368652E0,7.814041477E0
3.015125792E0,-3.926335144E-1,-3.429368591E-1,7.778424683E0,7.795874377E0
3.025156792E0,-5.975573730E-1,-4.273612976E-1,8.019722900E0,8.053301676E0
3.035188792E0,-9.454339600E-1,-5.322930908E-1,8.209977264E0,8.281359067E0
3.045219792E0,-1.051862640E0,-4.525090027E-1,7.948171692E0,8.030231171E0
3.055250792E0,-1.060095520E0,-3.966751099E-1,7.342980194E0,7.429704690E0
3.065282792E0,-7.393125916E-1,-3.589535522E-1,6.864874420E0,6.913894096E0
3.075313792E0,-5.571414185E-1,-5.810916138E-1,7.235354004E0,7.280001483E0
3.085345792E0,-6.542893982E-1,-9.705816650E-1,7.582631836E0,7.672446086E0
3.095376792E0,-5.797444153E-1,-1.037193146E0,7.540419617E0,7.633465871E0
3.105408792E0,1.493893433E-1,-9.157955933E-1,7.807613983E0,7.862559053E0
3.115439791E0,1.149609375E-1,-1.495090942E0,7.755222931E0,7.898860402E0
3.125470791E0,-9.936337280E-1,-1.977986755E0,8.021369476E0,8.321184283E0
3.135502791E0,-1.810784454E0,-1.643731842E0,8.923693085E0,9.252734351E0
3.145533792E0,-2.182611237E0,-1.499431915E0,8.823551331E0,9.212336618E0
3.155565792E0,-2.605032806E0,-1.607058105E0,7.656877441E0,8.246005326E0
3.165596792E0,-3.060086517E0,-1.631157990E0,7.047644348E0,7.854558978E0
3.175628792E0,-3.667523346E0,-1.581161957E0,7.093748474E0,8.140765814E0
3.185659792E0,-4.376000061E0,-1.546883240E0,7.725135498E0,9.012210758E0
3.195691167E0,-4.770878906E0,-1.613644409E0,8.200995941E0,9.624004792E0
3.205723166E0,-4.397704926E0,-1.998943176E0,8.389304352E0,9.680702967E0
3.215754166E0,-3.843407593E0,-2.984942780E0,8.574918365E0,9.859558322E0
3.225786166E0,-4.071682892E0,-3.099754028E0,6.438560944E0,8.224484399E0
3.235817167E0,-3.499572601E0,-2.668051758E0,6.174959106E0,7.582587193E0
3.245849167E0,-3.681145020E0,-2.400857391E0,6.171366577E0,7.576325646E0
3.255880167E0,-4.334985352E0,-2.024390259E0,6.596332855E0,8.148733709E0
3.265911167E0,-5.338498535E0,-1.981429596E0,7.400011597E0,9.337333746E0
3.275943167E0,-6.639742584E0,-2.534080353E0,7.756270752E0,1.051986125E1
3.285974167E0,-7.274572449E0,-2.988535309E0,8.012088776E0,1.122694590E1
3.296006167E0,-7.622299347E0,-2.958447876E0,8.099057922E0,1.150854467E1
3.306037167E0,-8.077203369E0,-3.386108551E0,7.413184204E0,1.147441700E1
3.316069167E0,-7.818541260E0,-3.281176758E0,7.873626709E0,1.157107194E1
3.326100167E0,-7.607779541E0,-3.054548035E0,8.091573486E0,1.151877314E1
3.336131167E0,-7.113357697E0,-3.212020569E0,8.153544617E0,1.128703786E1
3.346163167E0,-6.720424805E0,-3.680546265E0,9.191935272E0,1.196671235E1
3.356194166E0,-7.121740265E0,-4.320016479E0,1.017089951E1,1.314644148E1
3.366226166E0,-7.625592499E0,-4.598886566E0,9.281449127E0,1.286253150E1
3.376257166E0,-7.714357910E0,-4.080963593E0,7.761360168E0,1.167922487E1
3.386289167E0,-7.382797394E0,-3.367996216E0,6.477629700E0,1.038310081E1
3.396320167E0,-7.445516968E0,-3.099903717E0,5.920188904E0,1.000468703E1
3.406351167E0,-8.602311401E0,-3.013533325E0,5.639073486E0,1.071822254E1
3.416383167E0,-9.252559204E0,-2.888692932E0,4.982688446E0,1.089869638E1
3.426414167E0,-9.239087219E0,-2.839295654E0,4.558769989E0,1.068666067E1
3.436446167E0,-8.866811371E0,-2.917133789E0,4.762795715E0,1.047922881E1
3.446477167E0,-8.561745758E0,-3.470682678E0,5.170996857E0,1.058717796E1
3.456509167E0,-8.077802124E0,-4.168531494E0,6.129304047E0,1.096338953E1
3.466540167E0,-7.538773041E0,-4.248165894E0,6.592740326E0,1.087861376E1
3.476571167E0,-6.290518799E0,-4.582420807E0,6.228996735E0,9.968430545E0
3.486603167E0,-5.277425537E0,-5.245990906E0,6.353238373E0,9.784440643E0
3.496634167E0,-5.687872009E0,-5.351072388E0,6.749464417E0,1.032187646E1
3.506666166E0,-6.656507721E0,-5.269042969E0,6.994205475E0,1.099958268E1
3.516697166E0,-8.012837219E0,-5.310806122E0,6.229595490E0,1.145504613E1
3.526729167E0,-9.336534576E0,-4.519401855E0,4.552183685E0,1.132776445E1
3.536760167E0,-1.028765671E1,-3.534749451E0,2.342478790E0,1.112733306E1
3.546791167E0,-1.115435440E1,-2.992876282E0,1.051862640E0,1.159669546E1
3.556823167E0,-1.233479965E1,-2.516566772E0,9.346563721E-1,1.262354836E1
3.566854167E0,-1.351210144E1,-2.107617188E0,1.098116455E0,1.371950419E1
3.576886167E0,-1.419872360E1,-1.372944946E0,7.887098694E-1,1.428673486E1
3.586917167E0,-1.486813156E1,-4.300556946E-1,3.317102051E-1,1.487804811E1
3.596949167E0,-1.529070282E1,4.638853455E-1,-1.751358032E-1,1.529874030E1
3.606980167E0,-1.598570755E1,1.399290161E0,-7.875123596E-1,1.606614560E1
3.617012167E0,-1.657024200E1,2.649190979E0,-1.528770905E0,1.685017132E1
3.627043167E0,-1.687605606E1,3.695215759E0,-2.232008514E0,1.741946468E1
3.637074167E0,-1.682097061E1,3.958518219E0,-2.712808685E0,1.749211965E1
3.647106166E0,-1.638732239E1,3.648063812E0,-3.229085083E0,1.709618949E1
3.657137166E0,-1.569815552E1,2.944377136E0,-3.091221771E0,1.626828496E1
3.667169166E0,-1.436906937E1,1.872007141E0,-2.454445953E0,1.469690002E1
3.677200167E0,-1.261097534E1,8.961863708E-1,-2.010169830E0,1.280158708E1
3.687232167E0,-1.101783829E1,3.784130859E-1,-1.960323486E0,1.119726865E1
3.697263167E0,-9.701176300E0,3.519181824E-1,-2.520608368E0,1.002946332E1
3.707294167E0,-8.516390076E0,1.577719116E-1,-3.442391510E0,9.187156862E0
3.717326167E0,-7.757767639E0,-2.266287231E-1,-3.577560425E0,8.545949796E0
3.727357167E0,-7.232210541E0,-1.062789917E0,-2.541265411E0,7.739019421E0
3.737389167E0,-7.084467773E0,-2.457888794E0,-9.009764099E-1,7.552659098E0
3.747420167E0,-6.564449158E0,-3.752845917E0,9.119036865E-1,7.616259814E0
3.757452167E0,-5.860612793E0,-5.073399811E0,1.872905273E0,7.974580999E0
3.767483167E0,-4.332440643E0,-7.304360504E0,2.215542755E0,8.776807734E0
3.777514167E0,-3.377875671E0,-8.401578827E0,5.559439087E-1,9.072245834E0
3.787546167E0,-3.692072296E0,-7.392676849E0,-1.300495605E0,8.365067702E0
3.797577166E0,-5.452261963E0,-6.069877625E0,-2.598147125E0,8.562764937E0
3.807609166E0,-7.383845215E0,-5.087171173E0,-3.076252899E0,9.479652557E0
3.817640166E0,-8.185877380E0,-4.313430176E0,-3.246748352E0,9.805898390E0
3.827672167E0,-8.253686371E0,-4.140839081E0,-2.751128998E0,9.635278811E0
3.837703167E0,-8.700058136E0,-4.605921936E0,-1.846260681E0,1.001569803E1
3.847735167E0,-9.371711426E0,-5.136568451E0,-8.890013123E-1,1.072397472E1
3.857766167E0,-9.213191071E0,-4.622088318E0,-7.140151978E-1,1.033229925E1
3.867797167E0,-9.466763763E0,-3.939507751E0,-6.346801758E-1,1.027337123E1
3.877829167E0,-9.858050079E0,-3.530109100E0,-7.638615417E-1,1.049887166E1
3.887860167E0,-1.016176849E1,-2.944377136E0,-1.137334900E0,1.064069670E1
3.897892167E0,-1.033181488E1,-2.074685669E0,-1.566492462E0,1.065385461E1
3.907923167E0,-1.104238724E1,-1.106349335E0,-3.696712646E0,1.169717954E1
3.917955167E0,-1.225576401E1,-2.057920532E0,2.232158203E0,1.262621553E1
3.927986167E0,-1.402104309E1,-3.678151245E0,3.556304626E0,1.492533914E1
3.938018167E0,-1.367825592E1,-1.619033203E0,-8.622070313E-1,1.380070123E1
3.948049166E0,-1.374696304E1,-3.326233063E0,2.091151428E0,1.429740304E1
3.958080166E0,-1.140807678E1,-3.462150421E0,2.609822845E0,1.220417456E1
3.968112167E0,-1.137933655E1,-3.647015991E0,1.051114197E0,1.199561866E1
3.978143167E0,-1.004770569E1,-3.815715179E0,4.016148376E-1,1.075534130E1
3.988175167E0,-9.436376953E0,-4.109105072E0,-2.347119141E-1,1.029490380E1
3.998206167E0,-8.701854401E0,-4.814887390E0,4.376898193E-1,9.954746756E0
4.008238167E0,-7.850574646E0,-5.565276947E0,4.998106384E-1,9.636059384E0
4.018269167E0,-7.260202332E0,-6.076164551E0,2.142045593E-1,9.469751693E0
4.028301167E0,-6.804400177E0,-6.135890350E0,-2.806663513E-1,9.166667102E0
4.038332167E0,-6.397845612E0,-6.116281128E0,-7.891589355E-1,8.886174381E0
4.048364167E0,-6.354585571E0,-5.982609100E0,-1.423240356E0,8.842962317E0
4.058395167E0,-6.593339081E0,-5.672304382E0,-1.681453400E0,8.858580178E0
4.068426167E0,-6.928941193E0,-5.402116241E0,-1.418600006E0,8.899747857E0
4.078458167E0,-7.248077545E0,-5.146896973E0,-8.361611938E-1,8.928848867E0
4.088489166E0,-7.511529694E0,-5.192851410E0,-3.878434753E-1,9.139978483E0
4.098521166E0,-8.483159180E0,-5.096900940E0,5.598358154E-2,9.896743051E0
4.108552166E0,-9.380842438E0,-4.675227814E0,5.158273315E-1,1.049400009E1
4.118584167E0,-9.855804749E0,-4.923411713E0,1.252894592E-1,1.101782953E1
4.128615167E0,-9.707912292E0,-5.694757690E0,-5.691165161E-1,1.126932650E1
4.138647167E0,-9.155261536E0,-6.440806274E0,-6.857240295E-1,1.121485696E1
4.148678167E0,-8.834179230E0,-6.844067688E0,-5.474116516E-1,1.118854971E1
4.158710167E0,-9.024433594E0,-7.336693268E0,1.408570862E-1,1.163130734E1
4.168741167E0,-9.328152008E0,-7.873477020E0,7.005432129E-1,1.222688926E1
4.178772167E0,-9.571396179E0,-7.734865265E0,1.202299805E0,1.236467914E1
4.188804167E0,-9.794731750E0,-7.322173462E0,7.671546936E-1,1.225314329E1
4.198834792E0,-9.949958954E0,-7.110812988E0,1.254391479E-1,1.223033440E1
4.208866792E0,-1.020832169E1,-6.970255280E0,-1.065783691E-1,1.236145822E1
4.218897792E0,-1.094254486E1,-6.654561768E0,-5.403762817E-2,1.280724016E1
4.228929792E0,-1.178499298E1,-6.052663422E0,1.026864624E-1,1.324882404E1
4.238960792E0,-1.251277954E1,-5.460345154E0,1.231788483E0,1.370774686E1
4.248992792E0,-1.303040314E1,-4.929099884E0,2.483934631E0,1.415123185E1
4.259023792E0,-1.346240479E1,-4.184697876E0,1.293160858E0,1.415698781E1
4.269055792E0,-1.428718964E1,-3.472478943E0,1.218466187E-1,1.470363031E1
4.279086792E0,-1.475751160E1,-3.300037537E0,-1.191372528E0,1.516884191E1
4.289117792E0,-1.600606522E1,-3.615431671E0,-2.468217316E0,1.659390149E1
4.299149791E0,-1.541793823E1,-3.296145630E0,-2.462978210E0,1.595755799E1
4.309180791E0,-1.276021500E1,-3.485501862E0,-2.338137817E0,1.343274724E1
4.319212792E0,-1.059960800E1,-4.395309906E0,-1.697769470E0,1.159969224E1
4.329243792E0,-9.705517273E0,-4.534670105E0,-1.793270874E-1,1.071412417E1
4.339275792E0,-8.837023315E0,-4.623884583E0,1.197060699E0,1.004521000E1
4.349306792E0,-8.781339111E0,-4.928650818E0,2.623294830E0,1.040601707E1
4.359338792E0,-9.324559479E0,-5.092410278E0,3.767665100E0,1.127277039E1
4.369369792E0,-1.090227859E1,-4.574487305E0,3.535946960E0,1.234052404E1
4.379401792E0,-8.559201050E0,-1.260229340E0,1.047371979E0,8.714647937E0
4.389432792E0,-7.291487274E0,6.721023560E-2,1.364113312E0,7.418295560E0
4.399464792E0,-6.596931610E0,-3.501368866E0,-7.376660156E-1,7.504881195E0
4.409495792E0,-7.417076111E0,-3.411705322E0,-1.835782471E0,8.367965614E0
4.419526792E0,-5.789360962E0,-1.614692230E0,3.746708679E-1,6.021985520E0
4.429558792E0,-4.352199554E0,-2.329904938E0,1.351838837E0,5.118355812E0
4.439589791E0,-4.525988159E0,-2.725532227E0,8.925938416E-1,5.358154393E0
4.449621791E0,-5.364095306E0,-1.093625793E0,1.318308563E0,5.630938936E0
4.459652791E0,-5.753735046E0,1.649569702E-1,5.060975647E-1,5.778305334E0
4.469684792E0,-5.624104614E0,2.429447937E-1,-7.309300232E-1,5.676604054E0
4.479715792E0,-5.695655823E0,4.634362793E-1,-1.316811676E0,5.864235792E0
4.489747792E0,-5.784121857E0,1.042282562E0,-1.561552734E0,6.081189484E0
4.499778792E0,-5.917045441E0,1.522633667E0,-1.452579346E0,6.280113597E0
4.509810792E0,-6.446045380E0,2.024689636E0,-1.565294952E0,6.935489705E0
4.519841792E0,-6.655609589E0,2.219734039E0,-1.631906433E0,7.203296246E0
4.529872792E0,-7.331903229E0,2.497705994E0,-4.189787292E-1,7.756989323E0
4.539904792E0,-7.397915955E0,2.270628204E0,1.031355286E0,7.806958860E0
4.549935792E0,-6.962172089E0,1.319057007E0,2.930156708E0,7.667957349E0
4.559967792E0,-6.765032043E0,9.716294861E-1,3.335214386E0,7.604825929E0
4.569998792E0,-7.097790070E0,1.848206635E0,3.841162262E0,8.279433505E0
4.580030791E0,-7.215744781E0,2.806064758E0,3.976181488E0,8.703504547E0
4.590061791E0,-7.470065918E0,3.486549683E0,3.238515472E0,8.856968780E0
4.600093791E0,-7.240144043E0,3.843557281E0,2.956651611E0,8.714035064E0
4.610124792E0,-7.572303314E0,3.950884094E0,3.413501587E0,9.197894090E0
4.620156792E0,-7.869734802E0,4.524940338E0,4.445006561E0,1.010771459E1
4.630187792E0,-8.048313446E0,3.926335144E0,5.364544373E0,1.043885977E1
4.640219792E0,-7.900271301E0,1.475032654E0,5.315895538E0,9.635805796E0
4.650250792E0,-9.655521240E0,6.259982300E-1,6.140979767E0,1.146004349E1
4.660282792E0,-1.182750458E1,2.924917603E-1,7.449857941E0,1.398126601E1
4.670313792E0,-1.066262695E1,8.607101440E-2,6.322252808E0,1.239636650E1
4.680344792E0,-1.090242828E1,2.084415436E0,4.323010254E0,1.191201695E1
4.690376792E0,-1.064556244E1,9.324110413E-1,2.455493774E0,1.096480003E1
4.700407792E0,-9.677675171E0,5.511538696E-1,-2.963836670E-1,9.697886913E0
4.710439792E0,-1.020428009E1,6.057902527E-1,-2.293380890E0,1.047635003E1
4.720470792E0,-1.072534653E1,-1.027762756E0,-2.512076111E0,1.106344796E1
4.730502791E0,-1.059571609E1,-1.454225922E0,-1.047222290E0,1.074619221E1
4.740533791E0,-1.096814163E1,-1.977388000E-1,4.460723877E-2,1.097001464E1
4.750565792E0,-1.107067841E1,-3.082090759E-1,1.901046753E-2,1.107498418E1
4.760596792E0,-1.150687134E1,-4.713697815E-1,2.125579834E-1,1.151848334E1
4.770628792E0,-1.176179123E1,-1.916015625E-2,7.077282715E-1,1.178308021E1
4.780659792E0,-1.155312515E1,-1.496887207E-3,1.543739777E0,1.165580694E1
4.790691792E0,-1.118234619E1,-3.135978699E-1,1.405277710E0,1.127466254E1
4.800722792E0,-1.052356613E1,-2.014810181E-1,5.099894714E-1,1.053784266E1
4.810753792E0,-1.002585114E1,-3.242257690E-1,-4.914280701E-1,1.004312277E1
4.820785792E0,-1.017898270E1,-4.797523499E-1,-1.248553619E0,1.026648612E1
4.830816792E0,-1.062325882E1,-4.212240601E-1,-1.653162231E0,1.075936815E1
4.840848792E0,-1.065199905E1,-4.035607910E-1,-1.528920593E0,1.076872989E1
4.850879792E0,-1.025113266E1,-4.719685364E-1,-5.348377991E-1,1.027591974E1
4.860911792E0,-9.777068481E0,-6.701564026E-1,1.035546570E0,9.854569214E0
4.870942792E0,-1.033181488E1,-2.788700867E-1,1.126108246E0,1.039674406E1
4.880974791E0,-1.089928482E1,7.219487000E-1,4.219725037E-1,1.093131650E1
4.891005791E0,-1.036384827E1,9.211843872E-1,5.954617310E-1,1.042173240E1
4.901037792E0,-9.762698364E0,6.465055847E-1,7.741900635E-1,9.814663472E0
4.911068792E0,-9.268276520E0,4.528083801E-1,4.836442566E-1,9.291926433E0
4.921100792E0,-8.469088440E0,9.460327148E-1,-4.385879517E-1,8.533041444E0
4.931131792E0,-7.726333008E0,8.086184692E-1,-1.073118439E0,7.842299966E0
4.941162792E0,-8.146060181E0,1.598675537E-1,-8.634045410E-1,8.193248532E0
4.951194792E0,-8.540789337E0,1.787283325E-1,-8.581654358E-1,8.585655143E0
4.961225792E0,-8.311765594E0,1.300794983E-1,-8.541238403E-1,8.356548062E0
4.971257792E0,-8.154293060E0,1.583706665E-1,-8.720864868E-1,8.202323538E0
4.981288792E0,-8.225395203E0,7.454498291E-2,-1.226998444E0,8.316742654E0
4.991320792E0,-8.028404846E0,-3.390449524E-1,-8.843609619E-1,8.084078807E0
5.001351792E0,-7.458988953E0,-7.042854309E-1,-7.550299072E-1,7.530113168E0
5.011383792E0,-6.673272858E0,-9.026229858E-1,-9.452842712E-1,6.800063326E0
5.021414791E0,-6.478827209E0,-1.098565521E0,-1.335073700E0,6.705555160E0
5.031446791E0,-7.382348328E0,-1.554517365E0,-1.844464417E0,7.766443205E0
5.041477791E0,-8.395142212E0,-1.703158264E0,-3.091670837E0,9.107007708E0
5.051509792E0,-8.987161102E0,-1.160237274E0,-3.299289093E0,9.643677915E0
5.061540792E0,-9.253457336E0,-8.999285889E-1,-2.825224915E0,9.716904855E0
5.071571792E0,-8.901090088E0,-1.087638245E0,-2.359243927E0,9.272453484E0
5.081603792E0,-9.404343567E0,-1.273252258E0,-2.173929291E0,9.735954899E0
5.091634792E0,-9.733958130E0,-1.504221954E0,-2.310744781E0,1.011692473E1
5.101666792E0,-9.057215424E0,-1.527723083E0,-1.911524963E0,9.381951648E0
5.111697792E0,-7.655081177E0,-2.107467499E0,-1.362616425E0,8.055954978E0
5.121729792E0,-7.902965698E0,-3.079246674E0,-2.091301117E0,8.735683560E0
5.131760792E0,-7.716752930E0,-3.306174774E0,-2.480342102E0,8.753922798E0
5.141792792E0,-7.191644897E0,-4.040397949E0,-2.436483307E0,8.601222170E0
5.151823792E0,-7.649542694E0,-4.459077301E0,-2.963088226E0,9.336956980E0
5.161855791E0,-8.349337463E0,-4.222120056E0,-3.227588196E0,9.897224834E0
5.171886791E0,-8.994196472E0,-3.903432770E0,-2.694546661E0,1.016823187E1
5.181918791E0,-9.840686188E0,-3.809128876E0,-2.507136383E0,1.084593474E1
5.191949792E0,-9.912087708E0,-4.282294922E0,-2.511028290E0,1.108570230E1
5.201981167E0,-9.570498047E0,-4.206402740E0,-2.374811554E0,1.072044714E1
5.212013167E0,-9.177116089E0,-4.245621185E0,-1.841021576E0,1.027784605E1
5.222044167E0,-8.444389801E0,-4.826563110E0,-9.948312378E-1,9.777173403E0
5.232076167E0,-6.876849518E0,-5.240003357E0,-3.097059631E-1,8.651278071E0
5.242107167E0,-5.927673340E0,-6.366560669E0,-8.427474976E-2,8.699282051E0
5.252139166E0,-5.134772186E0,-6.968309326E0,-1.579216003E-1,8.657260508E0
5.262170166E0,-4.254901886E0,-7.128027191E0,-5.090913391E-1,8.316978760E0
5.272202166E0,-5.936504974E0,-9.017248535E0,-2.289938049E0,1.103615326E1
5.282233167E0,-6.144422607E0,-7.230863342E0,-4.640500031E0,1.056283837E1
5.292265167E0,-5.766009521E0,-5.235662384E0,-6.148613892E0,9.922926947E0
5.302296167E0,-6.425088959E0,-5.293891296E0,-6.264173584E0,1.041858550E1
5.312328167E0,-6.970404968E0,-6.037095795E0,-6.026767273E0,1.101612431E1
5.322359167E0,-7.013215942E0,-6.812782745E0,-5.217250671E0,1.108236938E1
5.332390167E0,-6.778504028E0,-7.929161224E0,-3.998185730E0,1.117162494E1
5.342422167E0,-6.113586731E0,-8.979976044E0,-3.414998474E0,1.138763044E1
5.352453167E0,-5.850284271E0,-9.192683716E0,-3.427123260E0,1.142262815E1
5.362485167E0,-6.247558136E0,-9.214687958E0,-3.129093018E0,1.156432791E1
5.372516167E0,-6.524631958E0,-9.601184235E0,-2.240091705E0,1.182250277E1
5.382548167E0,-6.384822693E0,-9.450896759E0,-2.354004822E0,1.164588979E1
5.392579167E0,-6.012247467E0,-9.088799744E0,-2.335144043E0,1.114478793E1
5.402611166E0,-5.447022858E0,-9.164691925E0,-2.051783295E0,1.085686192E1
5.412642166E0,-4.913681946E0,-8.964558105E0,-2.836002502E0,1.060898122E1
5.422674167E0,-5.231321411E0,-9.186097412E0,-3.361709290E0,1.109288956E1
5.432705167E0,-5.276677094E0,-8.928632812E0,-3.282523956E0,1.087836240E1
5.442736167E0,-5.225034485E0,-8.779093781E0,-2.903362427E0,1.062087503E1
5.452768167E0,-5.344785461E0,-8.756041718E0,-2.414479065E0,1.053872418E1
5.462799167E0,-5.118605804E0,-8.765322418E0,-2.227667542E0,1.039199236E1
5.472831167E0,-4.648882599E0,-8.975036316E0,-2.281705170E0,1.036192862E1
5.482862167E0,-4.254303131E0,-9.156608734E0,-2.483335876E0,1.039757355E1
5.492894167E0,-4.253704376E0,-9.070088654E0,-2.653981018E0,1.036359611E1
5.502925167E0,-4.337530060E0,-8.970096588E0,-2.398462372E0,1.024838629E1
5.512957167E0,-4.363875275E0,-8.687035217E0,-2.052831116E0,9.935899751E0
5.522988167E0,-4.207749939E0,-8.866961060E0,-1.873504028E0,9.991905490E0
5.533020167E0,-4.323758698E0,-9.148824921E0,-1.783990173E0,1.027514027E1
5.543051167E0,-4.427043915E0,-9.369615784E0,-1.988914032E0,1.055197597E1
5.553083166E0,-4.787344666E0,-9.333690491E0,-2.579885101E0,1.080241891E1
5.563114166E0,-5.352120209E0,-9.067993011E0,-3.207679596E0,1.100740189E1
5.573145167E0,-5.335205383E0,-9.214837646E0,-3.555256805E0,1.122575166E1
5.583177167E0,-4.752167816E0,-9.353898468E0,-3.429368591E0,1.103807431E1
5.593208167E0,-5.137915649E0,-9.321116638E0,-3.981719971E0,1.136377959E1
5.603240167E0,-6.038592682E0,-8.912616119E0,-4.696483612E0,1.174547939E1
5.613271167E0,-6.847061462E0,-8.917256470E0,-4.960833893E0,1.228859579E1
5.623303167E0,-7.510032806E0,-9.536518707E0,-5.379513245E0,1.327723407E1
5.633334167E0,-8.350235596E0,-9.949210510E0,-6.204597473E0,1.439479955E1
5.643366167E0,-9.915829926E0,-1.070603668E1,-6.616690521E0,1.602259336E1
5.653397167E0,-1.088431595E1,-1.137215149E1,-5.482349396E0,1.666884273E1
5.663429167E0,-1.154489227E1,-1.115480347E1,-3.911665649E0,1.652317482E1
5.673460167E0,-1.199455719E1,-1.128682892E1,-3.715573425E0,1.688393897E1
5.683491167E0,-1.137080429E1,-1.029858398E1,-3.794908447E0,1.580371325E1
5.693523166E0,-9.661957855E0,-8.919801178E0,-2.614463196E0,1.340715109E1
5.703554166E0,-7.921826477E0,-8.712781677E0,-1.730551300E0,1.190221438E1
5.713586167E0,-6.574178925E0,-9.488468628E0,-1.373693390E0,1.162488275E1
5.723617167E0,-6.171965332E0,-1.001686981E1,-2.144590302E0,1.195951941E1
5.733649167E0,-5.669609985E0,-9.944420471E0,-3.025807800E0,1.184024868E1
5.743680167E0,-4.384981384E0,-9.709708557E0,-2.981949005E0,1.106338655E1
5.753712167E0,-2.681374054E0,-9.014853516E0,-1.874252472E0,9.590108084E0
5.763743167E0,-1.403032379E0,-8.568182373E0,1.052311707E-1,8.682932836E0
5.773775167E0,-4.242178345E-1,-8.804241486E0,2.441123657E0,9.146240409E0
5.783806167E0,7.891589355E-1,-8.590785370E0,3.430566101E0,9.284026544E0
5.793838167E0,1.735191650E0,-7.861352234E0,3.402873688E0,8.740211573E0
5.803869167E0,2.486479340E0,-7.070546722E0,3.464096375E0,8.256825913E0
5.813900167E0,3.046764221E0,-6.375691681E0,3.951782227E0,8.096221304E0
5.823932167E0,2.549947357E0,-5.852529602E0,3.699107666E0,7.378192990E0
5.833963167E0,1.657353516E0,-5.530549164E0,2.125430145E0,6.152336794E0
5.843995166E0,1.158890076E0,-5.295687561E0,6.129753113E-1,5.455554205E0
5.854026166E0,5.769003296E-1,-5.310806122E0,-4.489164734E-1,5.360876948E0
5.864058167E0,2.844085693E-3,-5.429808655E0,-1.331481171E0,5.590677260E0
5.874089167E0,-8.193960571E-1,-5.529052277E0,-2.091600494E0,5.967966287E0
5.884121167E0,-1.623673553E0,-5.640270996E0,-2.681224365E0,6.452746455E0
5.894152167E0,-1.852547607E0,-5.970933380E0,-3.064277802E0,6.962311147E0
5.904184167E0,-1.709445190E0,-6.724316711E0,-3.431613922E0,7.740452972E0
5.914215167E0,-1.800006866E0,-7.679779816E0,-3.482657776E0,8.622525611E0
5.924247167E0,-2.372266846E0,-8.935069427E0,-3.234773254E0,9.794226548E0
5.934278167E0,-3.251239014E0,-1.008363098E1,-3.771856384E0,1.124620245E1
5.944309167E0,-4.715344391E0,-1.114806747E1,-4.640200653E0,1.296323043E1
5.954341167E0,-6.255491638E0,-1.179068115E1,-4.684807892E0,1.414562698E1
5.964372167E0,-7.254514160E0,-1.165715881E1,-4.137096863E0,1.433990578E1
5.974404167E0,-6.874753876E0,-1.095227463E1,-3.522624664E0,1.340236714E1
5.984435166E0,-5.930367737E0,-1.047416885E1,-2.945874023E0,1.239175728E1
5.994467166E0,-5.101690979E0,-1.046578629E1,-2.554138641E0,1.191988077E1
6.004498166E0,-4.687502289E0,-1.062370789E1,-2.644101562E0,1.190911920E1
6.014530167E0,-4.502187653E0,-1.062879730E1,-2.696791992E0,1.185384802E1
6.024561167E0,-3.967649231E0,-1.063283890E1,-2.931204529E0,1.172141047E1
6.034593167E0,-3.708987122E0,-1.053988220E1,-3.242706757E0,1.163446816E1
6.044624167E0,-3.738775177E0,-1.023077499E1,-3.215313721E0,1.135717567E1
6.054655167E0,-4.440815277E0,-1.015173935E1,-3.378324738E0,1.158411542E1
6.064687167E0,-5.307812347E0,-1.042507095E1,-3.233276367E0,1.213709407E1
6.074718167E0,-5.432952118E0,-1.053404434E1,-2.991379395E0,1.222421407E1
6.084750167E0,-4.939129028E0,-1.030247589E1,-3.119363251E0,1.184341303E1
6.094781167E0,-4.585564270E0,-1.014934433E1,-3.111280060E0,1.156359173E1
6.104813167E0,-4.640799408E0,-1.020143600E1,-2.878963165E0,1.157128967E1
6.114844167E0,-4.917274475E0,-1.033795212E1,-2.417772217E0,1.170036174E1
6.124876166E0,-5.307812347E0,-1.079974182E1,-1.824855194E0,1.217117052E1
6.134907166E0,-5.407505035E0,-1.091769653E1,-6.957531738E-1,1.220333072E1
6.144939166E0,-5.601501617E0,-1.087189178E1,2.974314880E-1,1.223369596E1
6.154970167E0,-5.582640839E0,-1.092922256E1,5.397775269E-1,1.228434550E1
6.165001167E0,-5.053042145E0,-1.094464050E1,3.444337463E-1,1.205972741E1
6.175033167E0,-4.304598541E0,-1.104403381E1,3.414399719E-1,1.185819686E1
6.185064167E0,-3.662134552E0,-1.108355164E1,8.759783936E-1,1.170571162E1
6.195096167E0,-3.160827026E0,-1.072594528E1,6.351292419E-1,1.120000531E1
6.205127042E0,-2.647245026E0,-1.061846878E1,-1.784289551E-1,1.094493592E1
6.215159042E0,-2.481389923E0,-1.014290771E1,-1.119521942E0,1.050186661E1
6.225190042E0,-2.626737671E0,-9.459578705E0,-1.842518463E0,9.988906564E0
6.235222042E0,-2.495161285E0,-9.053473206E0,-2.154469757E0,9.634985566E0
6.245253042E0,-2.599943390E0,-9.066047058E0,-2.016905823E0,9.644730374E0
6.255285042E0,-2.756068726E0,-9.596244507E0,-1.737736359E0,1.013427605E1
6.265316042E0,-2.405198364E0,-1.018751495E1,-1.802551575E0,1.062165864E1
6.275347042E0,-1.953288116E0,-1.017239639E1,-2.279609528E0,1.060611156E1
6.285379042E0,-9.933343506E-1,-9.676327972E0,-3.861968994E0,1.046579384E1
6.295410041E0,-9.083111572E-1,-9.216783600E0,-5.156776428E0,1.060030529E1
6.305442041E0,-1.547631683E0,-9.122629395E0,-5.718558197E0,1.087747391E1
6.315473041E0,-1.549727325E0,-9.177265778E0,-5.366490326E0,1.074351341E1
6.325505042E0,-1.369801483E0,-9.543105011E0,-4.136797485E0,1.049096291E1
6.335536042E0,-1.416204987E0,-1.021999741E1,-3.081492004E0,1.076798851E1
6.345568042E0,-1.727856903E0,-1.087009552E1,-2.083517303E0,1.120203153E1
6.355599042E0,-2.413730621E0,-1.140029297E1,-1.072968750E0,1.170230906E1
6.365631042E0,-3.206482086E0,-1.153576126E1,-2.634521484E-2,1.197313699E1
6.375662042E0,-3.662882996E0,-1.133921997E1,8.402027893E-1,1.194573405E1
6.385693042E0,-3.654051361E0,-1.107771378E1,1.529669037E0,1.176468109E1
6.395725042E0,-3.529061279E0,-1.094673615E1,2.971021729E0,1.187906881E1
6.405756042E0,-3.223247223E0,-1.061263092E1,1.982776794E0,1.126714966E1
6.415788042E0,-2.942880249E0,-9.936187592E0,1.426234131E0,1.046052158E1
6.425819042E0,-2.618205414E0,-8.946445770E0,6.270460510E-1,9.342755389E0
6.435851041E0,-2.332000580E0,-8.191116486E0,-7.650590515E-1,8.550902370E0
6.445882041E0,-2.567011871E0,-8.202642517E0,-1.624871063E0,8.747176698E0
6.455914041E0,-2.870879974E0,-8.432714081E0,-1.811832275E0,9.090399045E0
6.465945042E0,-3.100352783E0,-8.464597778E0,-1.626218262E0,9.160032138E0
6.475976042E0,-3.178639984E0,-8.243956604E0,-1.348395996E0,8.937826604E0
6.486008042E0,-3.027903442E0,-7.937094727E0,-1.108295288E0,8.567029263E0
6.496039042E0,-2.545007629E0,-7.901468811E0,-6.041436768E-1,8.323176244E0
6.506071042E0,-1.830543365E0,-7.998916168E0,-3.866459656E-1,8.214806387E0
6.516102042E0,-1.720222778E0,-8.186326447E0,-8.644523621E-1,8.409660218E0
6.526134042E0,-2.018552399E0,-8.485105133E0,-6.963519287E-1,8.749655360E0
6.536165042E0,-2.507286072E0,-8.932674408E0,-2.993774414E-1,9.282714171E0
6.546197042E0,-2.789748688E0,-9.575886841E0,2.025288391E-1,9.976037513E0
6.556228042E0,-2.698588257E0,-1.006686584E1,4.598437500E-1,1.043243130E1
6.566260042E0,-2.836002502E0,-1.032043854E1,3.025209045E-1,1.070728167E1
6.576291042E0,-2.812651062E0,-1.040576111E1,-2.448907471E-1,1.078196836E1
6.586322041E0,-2.569406891E0,-1.029783554E1,-9.138496399E-1,1.065281135E1
6.596354041E0,-2.585722961E0,-1.003588028E1,-1.541644135E0,1.047766782E1
6.606385041E0,-2.771037598E0,-9.730365601E0,-2.156415710E0,1.034450544E1
6.616417042E0,-2.889291687E0,-9.611662445E0,-2.868484955E0,1.043840349E1
6.626448042E0,-3.141367493E0,-9.833800507E0,-3.761677551E0,1.098735820E1
6.636480042E0,-3.615431671E0,-1.008617569E1,-4.275259552E0,1.153603617E1
6.646511042E0,-4.284240875E0,-1.032148636E1,-4.304897919E0,1.197580672E1
6.656543042E0,-4.670138397E0,-1.046668442E1,-3.773652649E0,1.206657075E1
6.666574042E0,-5.015619965E0,-1.007584717E1,-2.385888519E0,1.150528591E1
6.676605042E0,-5.245541840E0,-9.113348694E0,-8.258326721E-1,1.054755105E1
6.686637042E0,-4.835843811E0,-8.770411835E0,-7.306306458E-1,1.004187882E1
6.696668042E0,-4.378993835E0,-9.305549011E0,-1.481768646E0,1.039059516E1
6.706700042E0,-3.894750824E0,-9.771979065E0,-1.933080139E0,1.069567472E1
6.716731042E0,-3.477718048E0,-9.560618591E0,-1.961670685E0,1.036089294E1
6.726763042E0,-3.053949280E0,-9.244326324E0,-1.891915741E0,9.917838503E0
6.736794041E0,-2.734812927E0,-9.216783600E0,-1.923799438E0,9.804555367E0
6.746826041E0,-2.511627045E0,-9.225764923E0,-1.779798889E0,9.725774669E0
6.756857042E0,-2.503843231E0,-9.153614960E0,-1.620979156E0,9.627329390E0
6.766889042E0,-2.437680817E0,-9.058712311E0,-1.743424530E0,9.541597643E0
6.776920042E0,-2.287093964E0,-8.915310516E0,-2.024240570E0,9.423964680E0
6.786951042E0,-2.262245636E0,-8.607999573E0,-2.388732605E0,9.215283795E0
6.796983042E0,-2.476899261E0,-8.262218628E0,-2.695594482E0,9.036897489E0
6.807014042E0,-2.461481323E0,-8.069718933E0,-2.789449310E0,8.885959792E0
6.817046042E0,-2.394869843E0,-7.976013794E0,-2.628533936E0,8.732776663E0
6.827077042E0,-2.338437195E0,-8.047265625E0,-2.505489807E0,8.746670894E0
6.837109042E0,-2.333347778E0,-8.072712708E0,-2.453996887E0,8.754159185E0
6.847140042E0,-2.418370972E0,-8.040529633E0,-2.427951050E0,8.740342169E0
6.857172042E0,-1.997895355E0,-7.851173401E0,-2.409838715E0,8.452208720E0
6.867203042E0,-1.524130554E0,-7.575446777E0,-2.510279846E0,8.124769088E0
6.877235041E0,-1.169368286E0,-7.516170044E0,-2.676134949E0,8.063617835E0
6.887266041E0,-9.297166443E-1,-8.052055664E0,-2.968027954E0,8.631869056E0
6.897297041E0,-1.275946655E0,-8.901239777E0,-3.343746643E0,9.593787106E0
6.907329042E0,-3.425476685E0,-9.590406647E0,-3.019670563E0,1.062206197E1
6.917360042E0,-4.380041656E0,-9.228159943E0,-3.340752869E0,1.074729410E1
6.927392042E0,-4.180805969E0,-8.865913239E0,-2.450404358E0,1.010386251E1
6.937423042E0,-3.084934845E0,-8.481362915E0,-2.399809570E0,9.338598710E0
6.947455042E0,-2.666854248E0,-8.111781464E0,-3.236569519E0,9.131729976E0
6.957486042E0,-3.056943054E0,-8.175997925E0,-3.702550507E0,9.481599188E0
6.967518042E0,-3.528462524E0,-8.310119019E0,-3.805386658E0,9.797402386E0
6.977549042E0,-3.472778320E0,-8.126600647E0,-4.030219116E0,9.713109361E0
6.987580042E0,-3.332519989E0,-7.936645660E0,-4.517156525E0,9.721148949E0
6.997612042E0,-3.461551666E0,-7.798033905E0,-4.776417389E0,9.777823674E0
7.007643042E0,-3.476670227E0,-7.713908844E0,-4.641248474E0,9.650534333E0
7.017675042E0,-3.376977539E0,-7.699688416E0,-4.667444000E0,9.616351309E0
7.027706041E0,-3.211870880E0,-7.686066742E0,-4.640350342E0,9.535438522E0
7.037738041E0,-3.056793365E0,-7.673941956E0,-4.477039948E0,9.395597773E0
7.047769041E0,-2.906954956E0,-7.625143433E0,-4.273612976E0,9.211784157E0
7.057801042E0,-2.715503082E0,-7.603438568E0,-4.273762665E0,9.135167342E0
7.067832042E0,-2.744991760E0,-7.567962341E0,-4.219575348E0,9.089216131E0
7.077863042E0,-2.766247559E0,-7.535030823E0,-4.168830872E0,9.044775613E0
7.087895042E0,-2.785407715E0,-7.539671173E0,-4.012256470E0,8.983503744E0
7.097926042E0,-2.721490631E0,-7.502548370E0,-3.963008881E0,8.910678015E0
7.107958042E0,-2.807411957E0,-7.431446228E0,-3.979025574E0,8.884852247E0
7.117989042E0,-2.910846863E0,-7.412435760E0,-3.934717712E0,8.882524238E0
7.128021042E0,-3.055745544E0,-7.454348602E0,-3.913461914E0,8.956566199E0
7.138052042E0,-3.245401154E0,-7.485783234E0,-4.163442078E0,9.159903340E0
7.148084042E0,-3.417243805E0,-7.363637238E0,-4.305346985E0,9.188945600E0
7.158115042E0,-3.577111359E0,-7.441774750E0,-4.546944580E0,9.426051247E0
7.168147041E0,-3.620072021E0,-7.558082886E0,-4.779111786E0,9.647250790E0
7.178178041E0,-3.736080780E0,-7.496560822E0,-4.827610931E0,9.667603170E0
7.188209041E0,-3.720064087E0,-7.391778717E0,-5.038222961E0,9.688186622E0
7.198241042E0,-3.749403076E0,-7.351213074E0,-5.249284058E0,9.780252563E0
7.208272417E0,-3.752247162E0,-7.302264862E0,-5.370681610E0,9.810537795E0
7.218304417E0,-3.786525879E0,-7.266489258E0,-5.341192932E0,9.781001294E0
7.228335417E0,-3.925586700E0,-7.281907196E0,-5.171146545E0,9.755878225E0
7.238367417E0,-4.133504333E0,-7.337890778E0,-4.974156189E0,9.781243731E0
7.248398417E0,-4.264182587E0,-7.548951874E0,-4.741988983E0,9.882124622E0
7.258430416E0,-4.335284729E0,-7.521259460E0,-4.521198120E0,9.788016653E0
7.268461416E0,-4.254153442E0,-7.739655304E0,-4.292473755E0,9.819644427E0
7.278492416E0,-4.318669281E0,-7.716154175E0,-4.026327209E0,9.716030589E0
7.288524417E0,-4.211791534E0,-7.524402924E0,-3.994892578E0,9.503420121E0
7.298555417E0,-4.043242035E0,-7.471413116E0,-3.947441254E0,9.367609757E0
7.308587417E0,-3.959116974E0,-7.499853973E0,-3.874243469E0,9.323742773E0
7.318618417E0,-3.739074554E0,-7.532336426E0,-3.846551056E0,9.247309099E0
7.328650417E0,-3.806733856E0,-7.496860199E0,-3.905827789E0,9.270902125E0
7.338681417E0,-3.687431946E0,-7.476203156E0,-3.964954834E0,9.231014831E0
7.348713417E0,-3.275638275E0,-7.239395599E0,-4.039499817E0,8.913821488E0
7.358744417E0,-2.962788849E0,-7.332052917E0,-4.205055542E0,8.956540061E0
7.368776417E0,-2.896626434E0,-7.639363861E0,-4.232448578E0,9.201301314E0
7.378807417E0,-3.112028503E0,-8.208929443E0,-4.055217133E0,9.670368659E0
7.388838417E0,-3.441493378E0,-8.922495575E0,-3.745361481E0,1.027046915E1
7.398870417E0,-3.847149811E0,-9.566306763E0,-3.414549408E0,1.086158066E1
7.408901416E0,-4.340972900E0,-1.018841309E1,-2.954406281E0,1.146195112E1
7.418933416E0,-4.794978790E0,-1.116677856E1,-2.276615753E0,1.236413136E1
7.428964416E0,-5.273234253E0,-1.212882797E1,-1.527872772E0,1.331352180E1
7.438996417E0,-4.992717590E0,-1.255574020E1,-1.333277435E0,1.357760913E1
7.449027417E0,-4.023483124E0,-1.222597595E1,-2.321821747E0,1.307875226E1
7.459059417E0,-3.287613373E0,-1.161000687E1,-4.489015045E0,1.287446765E1
7.469090417E0,-3.387755127E0,-1.143367355E1,-5.973478088E0,1.333747413E1
7.479122417E0,-3.219954071E0,-1.083626587E1,-5.095553741E0,1.239989638E1
7.489153417E0,-3.203039246E0,-1.027583130E1,-4.072431335E0,1.150812175E1
7.499184417E0,-3.184926910E0,-9.836794281E0,-3.295397186E0,1.085200091E1
7.509216417E0,-3.032693481E0,-9.409732361E0,-2.400857391E0,1.017371167E1
7.519247417E0,-2.707270203E0,-8.826245728E0,-1.361418915E0,9.331955157E0
7.529279417E0,-1.833986206E0,-8.097860413E0,-4.117936707E-1,8.313147580E0
7.539310417E0,-8.795709229E-1,-7.305558014E0,2.796185303E-1,7.363627464E0
7.549342417E0,-3.128494263E-1,-6.743626556E0,5.566923523E-1,6.773793640E0
7.559373416E0,-7.268884277E-1,-6.801556091E0,5.411247253E-1,6.861657818E0
7.569405416E0,-1.528172150E0,-7.304360504E0,3.763174438E-1,7.471988177E0
7.579436417E0,-2.304906921E0,-7.975714417E0,1.496887207E-1,8.303434415E0
7.589467417E0,-3.065475311E0,-8.794212341E0,1.660047913E-1,9.314658726E0
7.599499417E0,-3.918850708E0,-9.410031738E0,1.633103943E-1,1.019474171E1
7.609530417E0,-4.451892242E0,-9.927206268E0,1.673519897E-1,1.088102824E1
7.619562417E0,-4.635260925E0,-1.027014313E1,2.447410583E-1,1.127037630E1
7.629593417E0,-4.713847504E0,-1.029319519E1,1.883084106E-1,1.132279495E1
7.639625417E0,-4.510420532E0,-1.029334488E1,6.451583862E-2,1.123837197E1
7.649656417E0,-3.852837982E0,-1.042581940E1,9.190887451E-2,1.111532806E1
7.659688417E0,-3.102448425E0,-1.059227325E1,1.047821045E-2,1.103727995E1
7.669719417E0,-2.556683350E0,-1.068762497E1,-1.767823792E-1,1.099059640E1
7.679751417E0,-2.245181122E0,-1.068702621E1,-5.415737915E-1,1.093373997E1
7.689782417E0,-2.182760925E0,-1.064526306E1,-1.146914978E0,1.092709865E1
7.699814416E0,-2.266287231E0,-1.062325882E1,-1.518891449E0,1.096798600E1
7.709845416E0,-2.527943115E0,-1.057326279E1,-1.744172974E0,1.101029163E1
7.719876416E0,-2.777923279E0,-1.041504181E1,-1.841470642E0,1.093530831E1
7.729908417E0,-3.041974182E0,-1.013257919E1,-1.864373016E0,1.074237659E1
7.739939417E0,-3.242856445E0,-9.708511047E0,-1.816023560E0,1.039563592E1
7.749971417E0,-3.236719208E0,-9.273365936E0,-1.847158813E0,9.994181442E0
7.760002417E0,-3.122656403E0,-8.864566040E0,-1.972448273E0,9.603232074E0
7.770034417E0,-2.698139191E0,-8.438551941E0,-2.428998871E0,9.186356703E0
7.780065417E0,-2.359243927E0,-8.243208160E0,-2.304308167E0,8.878420401E0
7.790097417E0,-2.054627380E0,-8.164172516E0,-1.920655975E0,8.635052166E0
7.800128417E0,-1.782193909E0,-8.063881073E0,-1.688339081E0,8.429287155E0
7.810160417E0,-1.503922577E0,-7.992928619E0,-1.647324371E0,8.298335292E0
7.820191417E0,-1.199904785E0,-7.881111145E0,-1.721719666E0,8.155734362E0
7.830223417E0,-9.213340759E-1,-7.799231415E0,-1.849853210E0,8.068384227E0
7.840254417E0,-7.860154724E-1,-7.848778381E0,-1.975591736E0,8.131672959E0
7.850285416E0,-7.375163269E-1,-7.842042389E0,-2.143093414E0,8.162990172E0
7.860317416E0,-7.592211914E-1,-7.959098969E0,-1.940564575E0,8.227360699E0
7.870348417E0,-1.144819336E0,-7.993976440E0,-1.687141571E0,8.249891958E0
7.880380417E0,-1.639540558E0,-8.011040955E0,-1.486708374E0,8.311147466E0
7.890411417E0,-2.095342712E0,-7.674091644E0,-1.117875366E0,8.033168054E0
7.900443417E0,-2.390977936E0,-7.330556030E0,-7.339237976E-1,7.745480704E0
7.910474417E0,-2.682721252E0,-7.291337585E0,-4.960684204E-1,7.785029286E0
7.920506417E0,-2.882555695E0,-7.655530243E0,-5.309458923E-1,8.197449248E0
7.930537417E0,-3.125799866E0,-8.248746643E0,-6.731501770E-1,8.846783435E0
7.940569417E0,-3.630699921E0,-8.900790710E0,-8.996292114E-1,9.654811749E0
7.950600417E0,-4.202510834E0,-9.538165283E0,-1.081650696E0,1.047891514E1
7.960632417E0,-4.672982483E0,-1.001492386E1,-9.440867615E-1,1.109174310E1
7.970663417E0,-4.732708282E0,-1.019529877E1,-6.414161682E-1,1.125851053E1
7.980695417E0,-4.414170685E0,-1.022134460E1,-4.293072510E-1,1.114204169E1
7.990726416E0,-3.944148102E0,-1.028915359E1,-4.343966675E-1,1.102776888E1
8.000757416E0,-3.515888672E0,-1.039498352E1,-4.977149963E-1,1.098475652E1
8.010789416E0,-3.216511230E0,-1.022972717E1,-3.176394653E-1,1.072819451E1
8.020820417E0,-3.075803833E0,-9.945168915E0,-7.574249268E-2,1.041022050E1
8.030852417E0,-3.003504181E0,-9.864935760E0,9.430389404E-3,1.031203587E1
8.040883417E0,-2.992726593E0,-9.919422455E0,-1.196012878E-1,1.036174014E1
8.050915417E0,-3.117716675E0,-9.904453583E0,-1.836680603E-1,1.038518618E1
8.060946417E0,-3.334465942E0,-9.827663269E0,-8.876541138E-2,1.037831912E1
8.070978417E0,-3.610192566E0,-9.830657043E0,-5.987548828E-2,1.047276913E1
8.081009417E0,-3.932173004E0,-9.868528290E0,-1.451980591E-2,1.062309023E1
8.091041417E0,-4.110901337E0,-1.019724472E1,-2.725831604E-1,1.099807307E1
8.101072417E0,-3.707041168E0,-1.133787277E1,-1.254391479E0,1.199429078E1
8.111104417E0,-4.140390015E0,-1.112112350E1,-1.042282562E0,1.191253837E1
8.121135417E0,-4.531975708E0,-1.094449081E1,-8.598120117E-1,1.187686658E1
8.131166417E0,-4.941074982E0,-1.078103073E1,-8.390052795E-1,1.188901911E1
8.141198416E0,-5.210664368E0,-1.073896820E1,-1.209634552E0,1.199748627E1
8.151229416E0,-5.173092499E0,-1.073372910E1,-1.597028961E0,1.202182714E1
8.161261417E0,-4.935386810E0,-1.068672684E1,-1.776056671E0,1.190456008E1
8.171292417E0,-4.659959564E0,-1.084958817E1,-1.863175507E0,1.195408756E1
8.181324417E0,-4.532873840E0,-1.139819733E1,-1.829794922E0,1.240217711E1
8.191355417E0,-4.433929596E0,-1.207164688E1,-1.862277374E0,1.299432442E1
8.201387667E0,-4.236041107E0,-1.252625153E1,-2.179767151E0,1.340158223E1
8.211418667E0,-3.773802338E0,-1.265363663E1,-2.818937988E0,1.350194487E1
8.221450667E0,-3.212020569E0,-1.258777359E1,-3.308120728E0,1.340569964E1
8.231481667E0,-2.698887634E0,-1.213316895E1,-3.294049988E0,1.285879265E1
8.241513666E0,-2.219434662E0,-1.155357422E1,-2.988684998E0,1.213850096E1
8.251544666E0,-1.821412354E0,-1.095227463E1,-2.540067902E0,1.138954817E1
8.261576666E0,-1.660946045E0,-1.051458481E1,-1.870510254E0,1.080805459E1
8.271607667E0,-1.578168182E0,-9.947114868E0,-1.236279144E0,1.014712251E1
8.281639667E0,-1.596430206E0,-9.654024353E0,-8.436456299E-1,9.821431340E0
8.291670667E0,-1.618883514E0,-9.644144897E0,-8.649014282E-1,9.817248551E0
8.301701667E0,-1.375339966E0,-9.333690491E0,-1.094823303E0,9.497787967E0
8.311733667E0,-9.548643494E-1,-8.921298065E0,-1.385967865E0,9.078669066E0
8.321764667E0,-5.827381897E-1,-8.716224518E0,-1.757046204E0,8.910632133E0
8.331796667E0,-2.498304749E-1,-8.191116486E0,-1.963167572E0,8.426792478E0
8.341827667E0,4.939727783E-3,-7.431745605E0,-2.103874969E0,7.723804570E0
8.351859667E0,7.634124756E-2,-7.418123932E0,-2.086511078E0,7.706355762E0
8.361890667E0,1.044827271E-1,-7.654033356E0,-1.535057831E0,7.807147097E0
8.371922667E0,1.930984497E-1,-8.173303528E0,-1.313069458E0,8.280358022E0
8.381953667E0,2.739303589E-1,-8.904383240E0,-1.367107086E0,9.012883030E0
8.391985666E0,9.999206543E-2,-9.422156525E0,-1.159189453E0,9.493721724E0
8.402016666E0,-2.528242493E-1,-9.529183960E0,-5.706134033E-1,9.549600342E0
8.412048667E0,-6.972500610E-1,-9.629625092E0,-4.909790039E-2,9.654959744E0
8.422079667E0,-9.903405762E-1,-9.780960388E0,1.347198486E-1,9.831892494E0
8.432111667E0,-1.139280853E0,-9.895621948E0,1.372645569E-1,9.961934359E0
8.442142667E0,-1.047671356E0,-1.011671219E1,9.550140381E-2,1.017126351E1
8.452174667E0,-1.205742645E0,-1.031250504E1,1.992356873E-1,1.038466515E1
8.462205667E0,-1.558558960E0,-1.071486832E1,3.158432007E-1,1.083223273E1
8.472236667E0,-1.975442047E0,-1.126736938E1,2.707868958E-1,1.144243460E1
8.482268667E0,-2.352657623E0,-1.159683426E1,-3.035687256E-1,1.183696400E1
8.492299667E0,-2.678679657E0,-1.102277802E1,-5.468128967E-1,1.135675853E1
8.502331667E0,-3.430865479E0,-1.076561279E1,-1.030606842E0,1.134598639E1
8.512362667E0,-5.256918182E0,-1.133008896E1,-4.100123749E0,1.314599252E1
8.522394667E0,-6.979985046E0,-1.220022949E1,-6.516099701E0,1.549275141E1
8.532425666E0,-6.420897675E0,-1.151240982E1,-3.812272339E0,1.372213275E1
8.542457666E0,-5.414540405E0,-1.047057632E1,-1.697470093E-1,1.178893678E1
8.552488666E0,-4.907844086E0,-9.952653351E0,1.496887207E0,1.119745121E1
8.562520667E0,-4.547543335E0,-9.329349518E0,1.609153748E0,1.050268007E1
8.572551667E0,-3.978127441E0,-8.926537170E0,7.640112305E-1,9.802666829E0
8.582583667E0,-2.929707642E0,-8.388555908E0,-2.110610962E-2,8.885465804E0
8.592614667E0,-1.991458740E0,-7.505542145E0,-2.941383362E-1,7.770816441E0
8.602646667E0,-1.732347565E0,-6.696624298E0,-2.770738220E-1,6.922613306E0
8.612677667E0,-1.777703247E0,-6.249803467E0,-3.932322693E-1,6.509600896E0
8.622708667E0,-1.622625732E0,-6.163732452E0,-3.507206726E-1,6.383378181E0
8.632740667E0,-1.009051666E0,-6.450086975E0,-3.737727356E-1,6.539228801E0
8.642771667E0,-2.915936279E-1,-6.441704407E0,-4.099974060E-1,6.461321876E0
8.652803667E0,3.457809448E-2,-6.422244873E0,-9.744735718E-2,6.423077210E0
8.662834667E0,8.517288208E-2,-6.413413239E0,1.880090332E-1,6.416733685E0
8.672866667E0,2.031275940E-1,-6.366860046E0,2.594105530E-1,6.375379322E0
8.682897666E0,4.116439819E-1,-6.350543976E0,1.875599670E-1,6.366634770E0
8.692929666E0,6.674620056E-1,-6.249055023E0,4.206253052E-2,6.284740525E0
8.702960667E0,9.153465271E-1,-6.118376770E0,-1.691482544E-1,6.188780550E0
8.712992667E0,1.011895752E0,-5.987698517E0,-3.432362366E-1,6.082292138E0
8.723023667E0,1.002465363E0,-5.875132599E0,-4.827461243E-1,5.979562164E0
8.733055667E0,8.761280823E-1,-5.842201080E0,-7.235952759E-1,5.951680771E0
8.743086667E0,5.634283447E-1,-6.044580231E0,-1.049766998E0,6.160877569E0
8.753118667E0,3.517684937E-2,-6.611750793E0,-1.441502380E0,6.767157090E0
8.763149667E0,-8.385562134E-1,-7.403155060E0,-2.073188782E0,7.733562768E0
8.773181667E0,-2.170187073E0,-8.288414154E0,-3.419489136E0,9.224989272E0
8.783212667E0,-4.265380096E0,-9.583820343E0,-6.216123505E0,1.219357500E1
8.793243667E0,-7.476951599E0,-1.155177795E1,-1.005983047E1,1.704548528E1
8.803275667E0,-1.151270920E1,-1.331780548E1,-1.238045471E1,2.152166524E1
8.813306667E0,-1.593511276E1,-1.374352020E1,-1.266366577E1,2.455973528E1
8.823338666E0,-1.956102264E1,-1.286679337E1,-1.358425140E1,2.706879873E1
8.833369666E0,-2.100776413E1,-1.174682236E1,-1.274629395E1,2.723567511E1
8.843401666E0,-1.904459656E1,-1.010668304E1,-8.580456848E0,2.320486888E1
8.853432667E0,-1.418135971E1,-7.994425507E0,-5.073399811E0,1.705172097E1
8.863464667E0,-9.415121155E0,-6.636000366E0,-2.892135773E0,1.187625600E1
8.873495667E0,-6.927743683E0,-6.350543976E0,-6.966513062E-1,9.423818991E0
8.883527667E0,-5.057532806E0,-6.373296661E0,1.768871613E0,8.326250969E0
8.893558667E0,-3.516936493E0,-6.700366516E0,4.638853455E0,8.875962771E0
8.903590667E0,-2.323019257E0,-7.687114563E0,7.478897552E0,1.097369844E1
8.913621667E0,-1.532064056E0,-9.604477386E0,8.904083862E0,1.318620171E1
8.923653667E0,-1.541943512E0,-1.179487244E1,8.210276642E0,1.445355486E1
8.933684667E0,-1.902094574E0,-1.347063766E1,6.009702759E0,1.487254417E1
8.943715667E0,-2.092648315E0,-1.440424622E1,3.877386932E0,1.506305465E1
8.953747667E0,-1.639989624E0,-1.438807983E1,9.475296021E-1,1.451220933E1
8.963778667E0,-1.024020538E0,-1.339594299E1,-2.128423920E0,1.360257678E1
8.973810666E0,-1.406774597E0,-1.089958420E1,-2.145039368E0,1.119737221E1
8.983841666E0,-1.122515717E0,-8.375832367E0,-1.663640442E0,8.612915238E0
8.993873667E0,-4.466711426E-1,-6.772217102E0,-2.025438080E0,7.082714099E0
9.003904667E0,6.318360901E-1,-5.465434570E0,-3.563190308E0,6.554884977E0
9.013936667E0,1.528621216E0,-5.163362732E0,-2.417323151E0,5.902579837E0
9.023967667E0,1.296603699E0,-6.016289062E0,7.050338745E-2,6.154826233E0
9.033999667E0,7.071295166E-1,-6.479725342E0,1.115630035E0,6.612979891E0
9.044030667E0,3.348536682E-1,-6.906188507E0,1.562899933E0,7.088739160E0
9.054062667E0,1.398092651E-1,-7.531438293E0,2.002685394E0,7.794411985E0
9.064093667E0,-2.965333557E-1,-8.301886139E0,1.981878662E0,8.540321336E0
9.074125667E0,-7.303312683E-1,-9.160500641E0,1.803150330E0,9.364801486E0
9.084156667E0,-1.221160583E0,-1.002959335E1,1.868115234E0,1.027491268E1
9.094187667E0,-1.792821808E0,-1.084599564E1,2.325563965E0,1.123646204E1
9.104219667E0,-2.465822296E0,-1.138622223E1,2.944526825E0,1.201651258E1
9.114250666E0,-3.166365509E0,-1.148202301E1,3.275189209E0,1.235271579E1
9.124282666E0,-3.746109924E0,-1.121617584E1,3.575315094E0,1.235389890E1
9.134313666E0,-4.126319275E0,-1.086066513E1,3.690725098E0,1.219024239E1
9.144345667E0,-4.322561188E0,-1.041623932E1,3.848646698E0,1.191615115E1
9.154376667E0,-4.429438934E0,-9.851912842E0,4.058510284E0,1.153913435E1
9.164408667E0,-4.585863647E0,-9.265432434E0,4.106111298E0,1.112378234E1
9.174439667E0,-4.765639801E0,-8.865015106E0,3.939058685E0,1.080814502E1
9.184471667E0,-4.942422180E0,-8.610693970E0,3.503015442E0,1.052818621E1
9.194502667E0,-5.235812073E0,-8.549022217E0,3.217858429E0,1.052872840E1
9.204533833E0,-5.415588226E0,-8.526568909E0,2.923271027E0,1.051553549E1
9.214564833E0,-5.334906006E0,-8.536897430E0,2.438878326E0,1.035799051E1
9.224596833E0,-5.077740784E0,-8.385262756E0,1.799408112E0,9.966641988E0
9.234627833E0,-4.707410889E0,-8.215964813E0,1.196761322E0,9.544319397E0
9.244658833E0,-4.345014496E0,-8.109236755E0,5.716612244E-1,9.217682370E0
9.254690833E0,-4.003275146E0,-8.251141663E0,-5.225633240E-1,9.185892611E0
9.264721833E0,-3.589236145E0,-8.597671051E0,-2.074236603E0,9.544895028E0
9.274753833E0,-2.671494598E0,-8.648116150E0,-3.932921448E0,9.868873667E0
9.284784833E0,-1.681453400E0,-8.428971863E0,-4.774621124E0,9.832184858E0
9.294816833E0,-1.518592072E0,-8.367000732E0,-3.836521912E0,9.329079457E0
9.304847833E0,-2.300116882E0,-8.605305176E0,-1.322649536E0,9.005066165E0
9.314879833E0,-3.266656952E0,-8.762628021E0,1.191971283E0,9.427379966E0
9.324910833E0,-3.587140503E0,-8.743318176E0,2.496508484E0,9.774750346E0
9.334942833E0,-3.531306610E0,-8.624165955E0,2.880460052E0,9.754148599E0
9.344973833E0,-3.496878204E0,-8.502469025E0,2.828218689E0,9.618677541E0
9.355005833E0,-3.463946686E0,-8.447533264E0,2.590812378E0,9.490629783E0
9.365036833E0,-3.495381317E0,-8.485703888E0,2.151625671E0,9.426258752E0
9.375068833E0,-3.544329529E0,-8.536148987E0,1.720671844E0,9.401533010E0
9.385099833E0,-3.535497894E0,-8.515192566E0,1.403032379E0,9.326132620E0
9.395130833E0,-3.492537231E0,-8.446036377E0,1.236129456E0,9.222871723E0
9.405162833E0,-3.455264740E0,-8.361462250E0,1.102756805E0,9.114218450E0
9.415193833E0,-3.509751434E0,-8.432564392E0,9.330097961E-1,9.181340024E0
9.425225833E0,-3.679648132E0,-8.627010040E0,7.891589355E-1,9.412113707E0
9.435256833E0,-3.866759033E0,-8.912316742E0,5.866300964E-1,9.732694899E0
9.445288833E0,-4.073329468E0,-9.373807068E0,-1.386117554E-1,1.022152069E1
9.455319833E0,-4.146227875E0,-1.011296997E1,-2.303859100E0,1.117010000E1
9.465351833E0,-4.053720245E0,-1.074510544E1,-4.795427856E0,1.244532310E1
9.475382833E0,-3.956272888E0,-1.095257401E1,-5.420677643E0,1.284502700E1
9.485414833E0,-4.217330017E0,-1.082219513E1,-2.921025696E0,1.197656758E1
9.495445833E0,-4.735402679E0,-1.046608566E1,2.468367004E-1,1.149016606E1
9.505477833E0,-5.141508179E0,-9.950557709E0,2.218835907E0,1.141805315E1
9.515508833E0,-5.431604919E0,-9.601184235E0,3.185226288E0,1.148175671E1
9.525539833E0,-5.733976135E0,-9.604327698E0,3.508553925E0,1.172312004E1
9.535571833E0,-6.107299805E0,-9.914931793E0,3.482957153E0,1.215466881E1
9.545602833E0,-6.682852936E0,-1.053658905E1,3.039279785E0,1.284201907E1
9.555634833E0,-7.542964325E0,-1.125644211E1,1.002615051E0,1.358709081E1
9.565665833E0,-7.967481537E0,-1.140972336E1,-3.344046021E0,1.431241395E1
9.575697833E0,-7.383994904E0,-1.102187988E1,-7.476352844E0,1.522829829E1
9.585728833E0,-6.685397644E0,-1.061787003E1,-5.919889526E0,1.387367282E1
9.595760833E0,-6.483018494E0,-1.043180695E1,-2.148482208E0,1.246868480E1
9.605791833E0,-6.401737518E0,-1.049886749E1,-7.741900635E-1,1.232103211E1
9.615823833E0,-6.224506073E0,-1.059736267E1,-1.601968689E0,1.239414681E1
9.625854833E0,-5.841752014E0,-1.050081345E1,-3.225642242E0,1.244178112E1
9.635886833E0,-5.485193481E0,-1.020577698E1,-3.652704163E0,1.214855872E1
9.645917833E0,-5.387746124E0,-9.833351440E0,-2.566413116E0,1.150256863E1
9.655949833E0,-5.433101807E0,-9.477391663E0,-8.819659424E-1,1.095980893E1
9.665980833E0,-5.507796478E0,-9.288783875E0,8.436456299E-1,1.083185422E1
9.676011833E0,-5.107977905E0,-9.261390839E0,2.176623688E0,1.079826325E1
9.686043833E0,-4.500690765E0,-9.758058014E0,2.594404907E0,1.105472073E1
9.696074833E0,-4.267026672E0,-1.089599167E1,2.534828796E0,1.197311606E1
9.706106833E0,-4.292024689E0,-1.199470688E1,2.409988403E0,1.296543532E1
9.716137833E0,-4.058210907E0,-1.250275040E1,2.351909180E0,1.335362573E1
9.726169833E0,-3.641178131E0,-1.258013947E1,2.339185638E0,1.330375423E1
9.736200833E0,-3.117117920E0,-1.270947052E1,2.020348663E0,1.324118098E1
9.746232833E0,-2.655627594E0,-1.286529648E1,1.445843353E0,1.321584936E1
9.756263833E0,-1.901795197E0,-1.301318893E1,6.686595154E-1,1.316840980E1
9.766295833E0,-1.237326965E0,-1.320898178E1,6.152206421E-2,1.326695001E1
9.776326833E0,-1.882036285E0,-1.320389236E1,3.855981445E-1,1.334292022E1
9.786358833E0,-3.316054230E0,-1.271994873E1,1.823058929E0,1.327090258E1
9.796389833E0,-4.480931854E0,-1.221340210E1,3.057990875E0,1.336402818E1
9.806421833E0,-5.672753448E0,-1.163350800E1,2.711012421E0,1.322377512E1
9.816452833E0,-6.713988190E0,-1.127904510E1,1.827100525E0,1.325265227E1
9.826483833E0,-7.175328827E0,-1.089120163E1,1.147513733E0,1.309276153E1
9.836515833E0,-7.298223267E0,-1.030142807E1,1.262474670E0,1.268768401E1
9.846546833E0,-7.200775909E0,-9.686656494E0,1.800006866E0,1.220338119E1
9.856578833E0,-6.859934692E0,-9.080117798E0,2.303859100E0,1.161098661E1
9.866609833E0,-6.013295288E0,-8.462651825E0,2.612517242E0,1.070520633E1
9.876641833E0,-4.830305328E0,-7.846682739E0,2.520758057E0,9.552826846E0
9.886672833E0,-3.689377899E0,-7.169041901E0,2.469863892E0,8.432490658E0
9.896704833E0,-2.758763123E0,-6.440357208E0,2.433040466E0,7.416782378E0
9.906735833E0,-1.930086365E0,-5.861211548E0,2.244732056E0,6.566418825E0
9.916767833E0,-1.253044281E0,-5.468278656E0,2.059567108E0,5.976119820E0
9.926798833E0,-7.680528259E-1,-5.137616272E0,2.040107574E0,5.580953773E0
9.936830833E0,-3.842509460E-1,-4.958887939E0,2.182461548E0,5.431515147E0
9.946861833E0,-5.538482666E-3,-4.937781830E0,2.423909454E0,5.500641519E0
9.956892833E0,4.346960449E-1,-4.840783539E0,2.590213623E0,5.507390719E0
9.966924833E0,8.583151245E-1,-4.653073883E0,2.675985260E0,5.435871460E0
9.976955833E0,1.206491089E0,-4.344116364E0,2.688110046E0,5.249085954E0
9.986987833E0,1.561103668E0,-3.979923706E0,2.604883118E0,5.006221472E0
9.997018833E0,1.865720215E0,-3.621269531E0,2.568808136E0,4.815940217E0
1.000705083E1,2.129022675E0,-3.431314545E0,2.473905487E0,4.735701153E0
1.001708183E1,2.329455872E0,-3.370091858E0,2.224823456E0,4.661944144E0
1.002711383E1,2.444416809E0,-3.496279449E0,1.926194458E0,4.680744451E0
1.003714483E1,2.362537079E0,-3.941753082E0,1.562301178E0,4.853842167E0
1.004717683E1,2.239642639E0,-4.551734619E0,1.167572021E0,5.205527026E0
1.005720783E1,1.969304810E0,-5.307213593E0,6.635700989E-1,5.699561635E0
1.006723983E1,1.592089233E0,-6.416556702E0,7.634124756E-3,6.611127462E0
1.007727083E1,1.057401123E0,-8.193960571E0,-7.289840698E-1,8.294004145E0
1.008730183E1,1.686542816E0,-1.199710190E1,-7.690707092E0,1.434997757E1
1.009733383E1,-8.807684326E-1,-2.435749832E1,-3.569477234E1,4.322245076E1
1.010736483E1,-1.669598053E1,-3.265444473E1,-4.094719986E1,5.497037114E1
1.011739683E1,-1.965757187E1,-2.783731201E1,-2.820105560E1,4.423387400E1
1.012742783E1,-1.554682022E1,-2.059522202E1,-1.430784668E1,2.950561413E1
1.013745983E1,-9.072932739E0,-1.659958099E1,-6.999893646E0,2.017083808E1
1.014749083E1,-4.206103363E0,-1.287367905E1,-3.249891815E0,1.392783955E1
1.015752283E1,-1.599573669E0,-9.391769714E0,1.318757629E-1,9.527925562E0
1.016755383E1,1.347198486E-2,-6.298601990E0,3.002156982E0,6.977500632E0
1.017758583E1,1.146316223E0,-3.958667908E0,4.612208862E0,6.185269847E0
1.018761683E1,2.324815521E0,-2.070195007E0,4.712649994E0,5.647968178E0
1.019764883E1,3.164419556E0,-7.870632935E-1,3.882775726E0,5.070401078E0
1.020767983E1,2.908152466E0,-1.133892059E0,3.163970490E0,4.444521484E0
1.021771183E1,1.901495819E0,-3.793261871E0,3.228935394E0,5.332030172E0
1.022774283E1,4.734654236E-1,-9.426198120E0,2.932252350E0,9.883090830E0
1.023777383E1,-2.718496857E0,-1.550071609E1,4.686604156E0,1.642031313E1
1.024780583E1,-6.749015350E0,-1.928903824E1,3.754492493E0,2.077769040E1
1.025783683E1,-1.141092087E1,-2.166968765E1,-4.894821167E-1,2.449538877E1
1.026786883E1,-1.618584137E1,-2.209345642E1,-5.019511871E0,2.784416953E1
1.027789983E1,-1.810634766E1,-1.722677673E1,-6.156547394E0,2.573916739E1
1.028793183E1,-1.423779236E1,-1.116992203E1,-3.007545776E0,1.834467827E1
1.029796283E1,-8.922196198E0,-7.084018707E0,7.926017761E-1,1.142003168E1
1.030799483E1,-4.866080933E0,-4.608167267E0,3.062182159E0,7.368236477E0
1.031802583E1,-2.075134735E0,-3.222798157E0,2.829266510E0,4.764174757E0
1.032805783E1,-3.980223083E-1,-2.222578125E0,1.924398193E0,2.966746313E0
1.033808883E1,1.066232758E0,-1.577419739E0,1.749412079E0,2.585642657E0
1.034811983E1,2.135758667E0,-1.405427399E0,1.972597961E0,3.229215690E0
1.035815183E1,2.772384796E0,-2.034868469E0,1.778451691E0,3.871653079E0
1.036818283E1,3.005899200E0,-3.994293823E0,1.302890625E0,5.165978816E0
1.037821483E1,2.135908356E0,-6.347699890E0,1.181642761E0,6.800858623E0
1.038824583E1,8.710386658E-1,-8.675808563E0,1.267863464E0,8.811120266E0
1.039827783E1,-5.297483826E-1,-1.097038696E1,1.593286743E0,1.109813435E1
1.040830883E1,-1.936972046E0,-1.277922546E1,2.597398682E0,1.318358616E1
1.041834083E1,-2.806663513E0,-1.383453094E1,4.046385498E0,1.468485077E1
1.042837183E1,-2.706671448E0,-1.440604248E1,5.592669983E0,1.568878860E1
1.043840383E1,-1.739532623E0,-1.445858322E1,6.289770355E0,1.586309597E1
1.044843483E1,-3.118016052E-1,-1.365535355E1,5.633984070E0,1.477523865E1
1.045846683E1,7.150630188E-1,-1.216190918E1,4.334386597E0,1.293098052E1
1.046849783E1,8.213420105E-1,-1.073792038E1,3.173101501E0,1.122702587E1
1.047852983E1,1.999841309E-1,-9.732461243E0,2.608625336E0,1.007798202E1
1.048856083E1,-3.888912964E-1,-8.868158569E0,2.575394440E0,9.242733869E0
1.049859183E1,-7.753875732E-1,-8.194559326E0,2.425406342E0,8.581061960E0
1.050862383E1,-1.126257935E0,-7.683671722E0,1.953886871E0,8.007805066E0
1.051865483E1,-1.510808258E0,-7.332352295E0,1.555714874E0,7.646318103E0
1.052868683E1,-1.803449707E0,-7.171287231E0,1.341510315E0,7.515280522E0
1.053871783E1,-2.018103333E0,-7.220235443E0,1.267863464E0,7.603421511E0
1.054874983E1,-2.353406067E0,-7.496111755E0,1.318158875E0,7.966665198E0
1.055878083E1,-2.798131256E0,-7.907156982E0,1.336420898E0,8.493449881E0
1.056881283E1,-3.338956604E0,-8.502019958E0,1.275497589E0,9.222790721E0
1.057884383E1,-4.093986511E0,-9.053323517E0,8.764274597E-1,9.974543466E0
1.058887583E1,-5.780529327E0,-9.927805023E0,-2.185605011E0,1.169413106E1
1.059890683E1,-8.137378235E0,-1.043764481E1,-6.027066650E0,1.454258870E1
1.060893883E1,-9.256151733E0,-9.889484711E0,-8.284971313E0,1.587825565E1
1.061896983E1,-9.163045349E0,-9.064550171E0,-6.386469269E0,1.438452153E1
1.062900083E1,-7.831863556E0,-8.334518280E0,-1.554966431E0,1.154210563E1
1.063903283E1,-6.112838287E0,-7.860753479E0,1.363963623E0,1.005080265E1
1.064906383E1,-5.481451263E0,-7.736062775E0,2.327659607E0,9.762733964E0
1.065909583E1,-5.525759125E0,-7.792495422E0,2.445015564E0,9.860785969E0
1.066912683E1,-5.755531311E0,-7.979456635E0,2.382445679E0,1.012294010E1
1.067915883E1,-6.070925446E0,-8.294701080E0,2.063459015E0,1.048408627E1
1.068918983E1,-6.515500946E0,-8.790021057E0,1.024918671E0,1.098938948E1
1.069922183E1,-6.855893097E0,-9.574689331E0,-2.127076721E-1,1.177808093E1
1.070925283E1,-6.433022461E0,-9.924062805E0,-1.605411530E0,1.193516429E1
1.071928483E1,-5.782624969E0,-9.779613190E0,-2.956052856E0,1.173958407E1
1.072931583E1,-5.456902313E0,-9.620344391E0,-3.121758270E0,1.149235327E1
1.073934783E1,-5.427413635E0,-9.530830536E0,-1.742825775E0,1.110544871E1
1.074937883E1,-5.323679352E0,-9.411977692E0,-1.335223389E-1,1.081409793E1
1.075940983E1,-4.844226379E0,-9.310937805E0,6.375242615E-1,1.051506202E1
1.076944183E1,-4.192631378E0,-9.197473755E0,9.008267212E-1,1.014806238E1
1.077947283E1,-3.838916931E0,-9.344168701E0,1.108444977E0,1.016264838E1
1.078950483E1,-4.200864258E0,-1.002600082E1,1.515298920E0,1.097561314E1
1.079953583E1,-4.904251556E0,-1.083357147E1,2.147434387E0,1.208426368E1
1.080956783E1,-5.533992004E0,-1.156974060E1,2.652783508E0,1.309661122E1
1.081959883E1,-6.131549377E0,-1.207943069E1,2.802023163E0,1.383328874E1
1.082963083E1,-6.679410095E0,-1.245110779E1,2.198777618E0,1.429962333E1
1.083966183E1,-7.124434662E0,-1.258597733E1,-1.330732727E-1,1.446312909E1
1.084969383E1,-6.643634491E0,-1.192001221E1,-4.324507141E0,1.431523427E1
1.085972483E1,-4.811743927E0,-1.052641022E1,-7.390880585E0,1.373256376E1
1.086975683E1,-3.111429749E0,-9.658814392E0,-8.020621033E0,1.293460677E1
1.087978783E1,-2.017055511E0,-9.515562286E0,-7.141499176E0,1.206712265E1
1.088981883E1,-1.192869415E0,-9.735754395E0,-4.599784698E0,1.083355299E1
1.089985083E1,-6.411167908E-1,-1.008632538E1,-3.122506714E-1,1.011150290E1
1.090988183E1,1.308279419E-1,-1.039423508E1,4.238136749E0,1.122582032E1
1.091991383E1,-3.694317627E-1,-1.059571609E1,4.783153381E0,1.163117516E1
1.092994483E1,-1.543141022E0,-1.068792435E1,3.646866302E0,1.139792283E1
1.093997683E1,-2.654430084E0,-1.066801575E1,3.489094391E0,1.153370447E1
1.095000783E1,-3.864364014E0,-1.050949539E1,4.227508850E0,1.196890278E1
1.096003983E1,-4.784051514E0,-1.033001862E1,5.154980164E0,1.249680975E1
1.097007083E1,-5.555846558E0,-1.038944504E1,5.730084229E0,1.310121614E1
1.098010283E1,-6.077062683E0,-1.060634399E1,5.724845123E0,1.349811377E1
1.099013383E1,-5.870791626E0,-1.101619171E1,4.382436676E0,1.322983089E1
1.100016583E1,-5.518873444E0,-1.184187469E1,1.269959106E0,1.312633827E1
1.101019683E1,-5.560486908E0,-1.237311996E1,-1.013392639E-1,1.356552181E1
1.102022783E1,-5.750741272E0,-1.243568985E1,1.242416382E-1,1.370156353E1
1.103025983E1,-5.360652466E0,-1.229782654E1,3.385958862E-1,1.341967882E1
1.104029083E1,-4.745731201E0,-1.191162964E1,1.212778015E0,1.287942995E1
1.105032283E1,-4.071533203E0,-1.152468430E1,2.105970612E0,1.240285624E1
1.106035383E1,-3.404071198E0,-1.117396362E1,2.427352295E0,1.193051562E1
1.107038583E1,-3.319197693E0,-1.082803299E1,2.196532288E0,1.153638270E1
1.108041683E1,-2.822231140E0,-1.020173538E1,1.795516205E0,1.073611996E1
1.109044883E1,-2.051034851E0,-9.438023529E0,1.409918060E0,9.760681382E0
1.110047983E1,-1.661694489E0,-8.621770935E0,1.070424042E0,8.845449127E0
1.111051183E1,-1.725910950E0,-7.890840912E0,1.003662872E0,8.139501094E0
1.112054283E1,-2.026186523E0,-7.409891052E0,1.202150116E0,7.775415239E0
1.113057483E1,-2.168989563E0,-6.801406403E0,1.458267517E0,7.286301457E0
1.114060583E1,-2.096540222E0,-6.262826385E0,1.728605347E0,6.826899126E0
1.115063683E1,-1.937570801E0,-5.877826996E0,1.844763794E0,6.458032538E0
1.116066883E1,-1.883982239E0,-5.597609711E0,1.962868195E0,6.223783021E0
1.117069983E1,-1.849853210E0,-5.645959167E0,2.060914307E0,6.288575324E0
1.118073183E1,-1.611099701E0,-5.758525085E0,1.810784454E0,6.247815118E0
1.119076283E1,-1.578168182E0,-5.905968475E0,1.786534882E0,6.368892001E0
1.120079483E1,-1.617686005E0,-5.995182953E0,1.984872437E0,6.519113838E0
1.121082617E1,-1.591490479E0,-6.035149841E0,2.239642639E0,6.631129218E0
1.122085817E1,-1.399589539E0,-6.035449219E0,2.274969177E0,6.600074462E0
1.123088917E1,-1.112037506E0,-6.193969574E0,2.202669525E0,6.667356263E0
1.124092117E1,-6.985972595E-1,-6.421047363E0,2.063459015E0,6.780542049E0
1.125095217E1,-1.902543640E-1,-6.613397369E0,1.784289551E0,6.852511269E0
1.126098417E1,1.902543640E-1,-6.877148895E0,1.497186584E0,7.040805445E0
1.127101517E1,4.587959290E-1,-7.234156494E0,1.246757355E0,7.355128672E0
1.128104617E1,6.658154297E-1,-7.654033356E0,9.738748169E-1,7.744415340E0
1.129107817E1,7.819738770E-1,-8.192763062E0,6.209088135E-1,8.253385819E0
1.130110917E1,7.298822021E-1,-8.742869110E0,4.989125061E-1,8.787457083E0
1.131114117E1,5.565426636E-1,-9.348958740E0,7.144642639E-1,9.392722100E0
1.132117217E1,4.309538269E-1,-1.017494110E1,6.981481934E-1,1.020796544E1
1.133120417E1,3.616479492E-1,-1.176014465E1,-9.464817810E-1,1.180371210E1
1.134123517E1,6.749464417E-1,-1.481409393E1,-6.606511688E0,1.623449810E1
1.135126717E1,-8.418493652E-1,-1.854403748E1,-1.164892593E1,2.191546284E1
1.136129817E1,-3.548520813E0,-2.166250259E1,-1.558439209E1,2.692079671E1
1.137133017E1,-4.382885742E0,-2.230646347E1,-1.853400833E1,2.933082789E1
1.138136117E1,-1.444945221E0,-1.820544159E1,-1.460812225E1,2.338638933E1
1.139139317E1,1.588945770E0,-1.350596420E1,-9.683812408E0,1.669467102E1
1.140142417E1,2.732567596E0,-1.109148514E1,-5.704038391E0,1.276808608E1
1.141145517E1,2.558180237E0,-9.858948212E0,-3.832180939E0,1.088249772E1
1.142148717E1,1.631307678E0,-1.044168640E1,-2.855312347E0,1.094727310E1
1.143151817E1,6.947053528E-1,-1.223361008E1,-1.360221405E0,1.232858602E1
1.144155017E1,-1.916015625E-1,-1.393512177E1,2.365081787E-1,1.393844561E1
1.145158117E1,-1.105600891E0,-1.465033447E1,2.065404968E0,1.483646020E1
1.146161317E1,-1.869761810E0,-1.372780289E1,3.950435028E0,1.440675252E1
1.147164417E1,-2.227218475E0,-1.110316086E1,4.652924194E0,1.224297295E1
1.148167617E1,-2.974015503E0,-7.379204865E0,3.660338287E0,8.757597217E0
1.149170717E1,-4.166585541E0,-4.322112122E0,2.867886200E0,6.653259315E0
1.150173917E1,-5.281018066E0,-3.083737335E0,2.611469421E0,6.649688738E0
1.151177017E1,-6.248905334E0,-3.327879639E0,2.676434326E0,7.568811100E0
1.152180217E1,-6.909930725E0,-4.406536560E0,2.997217255E0,8.726283192E0
1.153183317E1,-7.258406067E0,-5.730084229E0,3.180585938E0,9.779286825E0
1.154186517E1,-7.097041626E0,-6.893614655E0,3.201542358E0,1.039902862E1
1.155189617E1,-6.737788696E0,-7.606132965E0,3.272494812E0,1.067521791E1
1.156192717E1,-6.382727051E0,-8.046217804E0,3.612587585E0,1.088722254E1
1.157195917E1,-6.244564362E0,-8.250692596E0,3.691024475E0,1.098599900E1
1.158199017E1,-6.036497040E0,-8.400531006E0,3.333418121E0,1.086829766E1
1.159202217E1,-5.389093323E0,-8.502169647E0,2.851121063E0,1.046222285E1
1.160205317E1,-4.645739136E0,-8.810977478E0,2.321821747E0,1.022775989E1
1.161208517E1,-4.175716553E0,-9.137448578E0,2.032922516E0,1.024999264E1
1.162211617E1,-3.895798645E0,-9.514364777E0,2.006577301E0,1.047505306E1
1.163214817E1,-3.693120117E0,-9.911189575E0,2.052531738E0,1.077421466E1
1.164217917E1,-3.494932251E0,-1.026729904E1,2.043700104E0,1.103669748E1
1.165221117E1,-3.241359558E0,-1.053090088E1,2.020947418E0,1.120225484E1
1.166224217E1,-2.967429199E0,-1.061412781E1,1.936972046E0,1.119004941E1
1.167227417E1,-2.668800201E0,-1.050156189E1,1.742376709E0,1.097456939E1
1.168230517E1,-2.363584900E0,-1.023945694E1,1.502276001E0,1.061554733E1
1.169233617E1,-2.018253021E0,-9.878856812E0,1.235680389E0,1.015834943E1
1.170236817E1,-1.675465851E0,-9.427994385E0,1.016985168E0,9.629565035E0
1.171239917E1,-1.322050781E0,-9.064250793E0,8.744815063E-1,9.201803009E0
1.172243117E1,-1.025218048E0,-8.854087830E0,7.494914246E-1,8.944701266E0
1.173246217E1,-7.828720093E-1,-8.843160553E0,6.048921204E-1,8.898329710E0
1.174249417E1,-4.315525818E-1,-9.107361145E0,3.927832031E-1,9.126036560E0
1.175252517E1,3.745211792E-1,-9.867181091E0,-4.324507141E-1,9.883751435E0
1.176255717E1,1.408720551E0,-1.109073669E1,-1.616488495E0,1.129610415E1
1.177258817E1,1.165775757E0,-1.150642227E1,-2.109563141E0,1.175614917E1
1.178262017E1,-2.395019531E-3,-1.132904114E1,-2.184557190E0,1.153774107E1
1.179265117E1,-1.566492462E0,-1.090212891E1,-1.821112976E0,1.116363587E1
1.180268317E1,-3.004701691E0,-1.033810181E1,-1.151106262E0,1.082726313E1
1.181271417E1,-4.091441803E0,-9.810149689E0,-5.466632080E-1,1.064320316E1
1.182274517E1,-4.799619141E0,-9.454189911E0,-3.412902832E-2,1.060279282E1
1.183277717E1,-5.160219269E0,-9.172924805E0,4.266128540E-1,1.053339503E1
1.184280817E1,-5.340444489E0,-8.990603943E0,8.310717773E-1,1.049008994E1
1.185284017E1,-5.398972778E0,-8.871002655E0,1.121018829E0,1.044510787E1
1.186287117E1,-5.446124725E0,-8.767717438E0,1.288819885E0,1.040164411E1
1.187290317E1,-5.420527954E0,-8.701105957E0,1.405876465E0,1.034735990E1
1.188293417E1,-5.347030792E0,-8.662037201E0,1.498982849E0,1.028924566E1
1.189296617E1,-5.217100983E0,-8.579858093E0,1.589245148E0,1.016650420E1
1.190299717E1,-4.971761169E0,-8.625513153E0,1.620081024E0,1.008675115E1
1.191302917E1,-4.613406372E0,-8.658893738E0,1.613943787E0,9.943076670E0
1.192306017E1,-4.161496124E0,-8.604556732E0,1.576222229E0,9.687152475E0
1.193309217E1,-3.868255920E0,-8.763077087E0,1.505269775E0,9.696430323E0
1.194312317E1,-3.602857819E0,-9.030720520E0,1.368005219E0,9.818652446E0
1.195315417E1,-3.531007233E0,-9.327104187E0,1.296304321E0,1.005700201E1
1.196318617E1,-3.560046844E0,-9.552385712E0,1.354233856E0,1.028377147E1
1.197321717E1,-3.493435364E0,-9.542955322E0,1.415007477E0,1.026032812E1
1.198324917E1,-3.390898590E0,-9.490863647E0,1.553469543E0,1.019744839E1
1.199328017E1,-3.256328430E0,-9.491911469E0,1.794618073E0,1.019415088E1
1.200331217E1,-3.084036713E0,-9.539063416E0,2.036215668E0,1.022991630E1
1.201334317E1,-2.969973907E0,-9.607471161E0,2.207160187E0,1.029542632E1
1.202337517E1,-2.994373169E0,-9.719288635E0,2.410437469E0,1.045184438E1
1.203340617E1,-3.174897766E0,-9.912836151E0,2.678080902E0,1.074785624E1
1.204343817E1,-3.539539490E0,-1.021146515E1,3.087329865E0,1.123983834E1
1.205346917E1,-4.024680634E0,-1.051233948E1,3.649860077E0,1.183337712E1
1.206350117E1,-4.498295746E0,-1.063538361E1,4.134552155E0,1.226542174E1
1.207353217E1,-4.872966614E0,-1.055634796E1,4.435276794E0,1.244403336E1
1.208356317E1,-5.148693237E0,-1.035816010E1,4.625381470E0,1.245771553E1
1.209359517E1,-5.420827332E0,-1.004890320E1,4.607418823E0,1.231235691E1
1.210362617E1,-5.597909088E0,-9.732311554E0,4.138893127E0,1.196598975E1
1.211365817E1,-5.794899445E0,-9.714648285E0,3.857777710E0,1.195147270E1
1.212368917E1,-6.022426300E0,-9.936936035E0,3.381767578E0,1.210159776E1
1.213372117E1,-6.503525848E0,-1.063089294E1,2.806214447E0,1.277445000E1
1.214375217E1,-6.940616913E0,-1.169293442E1,2.148781586E0,1.376641350E1
1.215378417E1,-6.659651184E0,-1.234497849E1,4.567002869E-1,1.403417339E1
1.216381517E1,-6.381679230E0,-1.249975662E1,-1.164428558E0,1.408281361E1
1.217384717E1,-7.581134949E0,-1.272339157E1,-1.055455170E0,1.484830919E1
1.218387817E1,-9.448950806E0,-1.296394135E1,2.679428101E-1,1.604425878E1
1.219391017E1,-1.025592270E1,-1.297456924E1,1.716031494E0,1.662733176E1
1.220394117E1,-9.228908386E0,-1.196611633E1,2.386337585E0,1.529886588E1
1.221397317E1,-6.519991608E0,-1.004082001E1,2.234852600E0,1.217878989E1
1.222400417E1,-3.867806854E0,-8.214916992E0,1.679657135E0,9.233961184E0
1.223403517E1,-2.286046143E0,-6.764882355E0,1.165476379E0,7.235190076E0
1.224406717E1,-1.476679230E0,-5.776787109E0,9.045689392E-1,6.030762458E0
1.225409817E1,-5.378315735E-1,-5.032983856E0,8.419990540E-1,5.131193984E0
1.226413017E1,7.842192078E-1,-4.288432159E0,1.134790192E0,4.504819523E0
1.227416117E1,2.587369537E0,-3.701053619E0,1.902543640E0,4.900199110E0
1.228419317E1,4.963677979E0,-3.323688354E0,2.831212463E0,6.610655593E0
1.229422417E1,6.166277161E0,-3.454067230E0,2.686912537E0,7.561286493E0
1.230425617E1,4.547094269E0,-4.729415131E0,1.690135345E0,6.774953229E0
1.231428717E1,2.201472015E0,-6.644832001E0,1.349743195E0,7.128960516E0
1.232431917E1,8.150550842E-1,-7.940088501E0,1.198108521E0,8.071231890E0
1.233435017E1,-2.546205139E-1,-8.416248322E0,9.954299927E-1,8.478735064E0
1.234438217E1,-1.208437042E0,-8.164771271E0,1.008303223E0,8.315075789E0
1.235441317E1,-2.113005981E0,-7.795339508E0,1.077309723E0,8.148172099E0
1.236444417E1,-3.018622742E0,-7.455097046E0,1.038839722E0,8.109854696E0
1.237447617E1,-3.774251404E0,-7.234306183E0,9.656419373E-1,8.216606596E0
1.238450717E1,-4.401147766E0,-7.243287506E0,8.249345398E-1,8.515622852E0
1.239453917E1,-4.939129028E0,-7.450157318E0,7.352709961E-1,8.968860745E0
1.240457017E1,-5.359005890E0,-7.742200012E0,6.697073364E-1,9.439762342E0
1.241460217E1,-5.799689484E0,-8.165819092E0,6.417155457E-1,1.003637377E1
1.242463317E1,-6.254443817E0,-8.609047394E0,6.607260132E-1,1.066162855E1
1.243466517E1,-6.606212311E0,-9.036857758E0,6.878196716E-1,1.121516541E1
1.244469617E1,-6.911427612E0,-9.450298004E0,6.973997498E-1,1.172869688E1
1.245472817E1,-7.147636414E0,-9.703721008E0,7.038363647E-1,1.207254295E1
1.246475917E1,-7.248077545E0,-9.731114044E0,7.360194397E-1,1.215610683E1
1.247479117E1,-7.127278748E0,-9.549541626E0,8.005352783E-1,1.194289347E1
1.248482217E1,-6.784192200E0,-9.257648621E0,8.253836060E-1,1.150697962E1
1.249485417E1,-6.325695648E0,-8.874744873E0,8.716374207E-1,1.093321882E1
1.250488517E1,-5.869444427E0,-8.489745483E0,9.144483948E-1,1.036158155E1
1.251491617E1,-5.491929474E0,-8.228239288E0,1.011596375E0,9.944271635E0
1.252494817E1,-5.201832733E0,-8.067772980E0,1.149160309E0,9.667915704E0
1.253497917E1,-4.991969147E0,-8.034991150E0,1.269510040E0,9.544238811E0
1.254501117E1,-4.920268250E0,-8.097860413E0,1.358874207E0,9.572404192E0
1.255504217E1,-4.826114044E0,-8.172255707E0,1.396595764E0,9.593102722E0
1.256507417E1,-4.819677429E0,-8.289761353E0,1.397643585E0,9.690347847E0
1.257510517E1,-4.889432373E0,-8.439450073E0,1.366358643E0,9.848746235E0
1.258513717E1,-5.045707397E0,-8.613088989E0,1.350791016E0,1.007318725E1
1.259516817E1,-5.162913666E0,-8.783285065E0,1.328188019E0,1.027452468E1
1.260520017E1,-5.211263123E0,-8.840765533E0,1.273401947E0,1.034108075E1
1.261523117E1,-5.142705688E0,-8.784183197E0,1.179996185E0,1.024703309E1
1.262526217E1,-4.987478485E0,-8.724008331E0,1.065783691E0,1.010540241E1
1.263529417E1,-4.766987000E0,-8.624016266E0,9.226812744E-1,9.896926914E0
1.264532517E1,-4.566553802E0,-8.536747742E0,8.173004150E-1,9.715835301E0
1.265535717E1,-4.380640411E0,-8.464747467E0,7.265890503E-1,9.558759948E0
1.266538817E1,-4.217330017E0,-8.441695404E0,6.363267517E-1,9.457959902E0
1.267542017E1,-4.093687134E0,-8.481213226E0,5.769003296E-1,9.435150562E0
1.268545117E1,-4.066892853E0,-8.574918365E0,5.668711853E-1,9.507375316E0
1.269548317E1,-4.117936707E0,-8.736133118E0,5.670208740E-1,9.674654373E0
1.270551417E1,-4.245471497E0,-8.837322693E0,5.616320801E-1,9.820271442E0
1.271554617E1,-4.345762939E0,-8.822952576E0,5.402265930E-1,9.849974236E0
1.272557717E1,-4.344415741E0,-8.731792145E0,5.324427795E-1,9.767376183E0
1.273560917E1,-4.288132782E0,-8.622070312E0,5.620811462E-1,9.645937717E0
1.274564017E1,-4.228706360E0,-8.580456848E0,6.155200195E-1,9.585669622E0
1.275567217E1,-4.206253052E0,-8.599766693E0,7.044351196E-1,9.599207298E0
1.276570317E1,-4.208947449E0,-8.568032684E0,7.849676514E-1,9.578235585E0
1.277573417E1,-4.251309357E0,-8.646170197E0,8.559201050E-1,9.672770520E0
1.278576617E1,-4.253105621E0,-8.778495026E0,9.689350891E-1,9.802536281E0
1.279579717E1,-4.381089478E0,-9.028774567E0,1.093027039E0,1.009492067E1
1.280582917E1,-4.578229523E0,-9.225914612E0,1.177301788E0,1.036647122E1
1.281586017E1,-4.669090576E0,-9.262738037E0,1.209335175E0,1.044323773E1
1.282589217E1,-4.487967224E0,-9.110803986E0,1.153201904E0,1.022147121E1
1.283592317E1,-4.103716278E0,-8.814869385E0,9.677375793E-1,9.771331822E0
1.284595517E1,-3.759132843E0,-8.573421478E0,8.554710388E-1,9.400343944E0
1.285598617E1,-3.624113617E0,-8.275690613E0,8.158035278E-1,9.071206646E0
1.286601817E1,-3.691922607E0,-8.217611389E0,9.041198730E-1,9.054107478E0
1.287604917E1,-3.527265015E0,-8.021519165E0,9.574090576E-1,8.814930533E0
1.288608117E1,-3.628304901E0,-8.246950378E0,1.051862640E0,9.071008875E0
1.289611217E1,-3.894451447E0,-8.732390900E0,1.282383270E0,9.647067417E0
1.290614417E1,-4.071982269E0,-9.239386597E0,1.307530975E0,1.018120531E1
1.291617517E1,-4.242926788E0,-9.701924744E0,1.218765564E0,1.065904128E1
1.292620617E1,-4.085304565E0,-9.687105560E0,1.020727386E0,1.056274642E1
1.293623817E1,-3.883075104E0,-9.458979950E0,9.571096802E-1,1.026969488E1
1.294626917E1,-3.444337463E0,-9.151219940E0,9.014254761E-1,9.819412144E0
1.295630117E1,-3.215762787E0,-9.130562897E0,7.966433716E-1,9.713029897E0
1.296633217E1,-2.820434875E0,-9.224268036E0,6.801855469E-1,9.669779008E0
1.297636417E1,-3.096311188E0,-9.330097961E0,8.523275757E-1,9.867336684E0
1.298639517E1,-3.304079132E0,-9.438023529E0,9.355545044E-1,1.004333059E1
1.299642717E1,-3.634142761E0,-9.361382904E0,1.075513458E0,1.009946596E1
1.300645817E1,-3.964505768E0,-9.275910645E0,1.353335724E0,1.017798319E1
1.301649017E1,-4.110452271E0,-9.341025238E0,1.542392578E0,1.032131509E1
1.302652117E1,-4.109554138E0,-9.422156525E0,1.649120636E0,1.041081494E1
1.303655317E1,-3.847149811E0,-9.216633911E0,1.528920593E0,1.010368747E1
1.304658417E1,-3.849844208E0,-9.085955658E0,1.620530090E0,1.000010042E1
1.305661617E1,-4.286486206E0,-9.158105621E0,1.798360291E0,1.027029514E1
1.306664717E1,-4.530778198E0,-9.139244843E0,1.687890015E0,1.033937716E1
1.307667917E1,-4.427792358E0,-9.067094879E0,1.515598297E0,1.020365586E1
1.308671017E1,-4.833897858E0,-8.942404175E0,1.526974640E0,1.027933911E1
1.309674117E1,-5.107229462E0,-8.782536621E0,1.483864288E0,1.026735582E1
1.310677317E1,-5.052892456E0,-8.813073120E0,1.315314789E0,1.024363378E1
1.311680417E1,-4.883744202E0,-8.779692535E0,1.128802643E0,1.010980484E1
1.312683617E1,-4.671784973E0,-8.729097748E0,9.620494080E-1,9.947274068E0
1.313686717E1,-4.443210297E0,-8.644373932E0,7.861651611E-1,9.751172959E0
1.314689917E1,-4.418212280E0,-8.297245789E0,8.894503784E-1,9.442245994E0
1.315693017E1,-4.360133057E0,-8.539591827E0,1.042432251E0,9.644794132E0
1.316696217E1,-4.427942047E0,-8.711584167E0,1.050365753E0,9.828613213E0
1.317699317E1,-4.153862000E0,-8.706644440E0,1.007105713E0,9.699200422E0
1.318702517E1,-4.041595459E0,-8.766220551E0,9.952803040E-1,9.704210400E0
1.319705617E1,-4.027824097E0,-9.023535461E0,9.413923645E-1,9.926418224E0
1.320708817E1,-4.141138458E0,-9.313632202E0,9.373507690E-1,1.023579010E1
1.321711917E1,-3.897145844E0,-9.523495789E0,8.381071472E-1,1.032410487E1
1.322715117E1,-3.569926300E0,-9.460776215E0,7.493417358E-1,1.013963379E1
1.323718217E1,-3.368894348E0,-9.377848663E0,7.632627869E-1,9.993801317E0
1.324721317E1,-3.304977264E0,-9.210796051E0,8.955876160E-1,9.826683865E0
1.325724517E1,-3.180885315E0,-9.074729004E0,1.065184937E0,9.674882781E0
1.326727617E1,-3.147205353E0,-9.011111298E0,1.175505524E0,9.617007933E0
1.327730817E1,-3.270249481E0,-9.011859741E0,1.243763580E0,9.667217568E0
1.328733917E1,-3.424129486E0,-9.054970093E0,1.318158875E0,9.770091552E0
1.329737117E1,-3.573518829E0,-9.040599976E0,1.413959656E0,9.823531272E0
1.330740217E1,-3.714226227E0,-9.011859741E0,1.492995300E0,9.860939480E0
1.331743417E1,-3.788920898E0,-9.087302856E0,1.514101410E0,9.961300008E0
1.332746517E1,-3.776945801E0,-9.106013947E0,1.437610474E0,9.962506384E0
1.333749717E1,-3.684288483E0,-9.060209198E0,1.343007202E0,9.872438436E0
1.334752817E1,-3.768413544E0,-9.296118622E0,1.262324982E0,1.011000625E1
1.335756017E1,-3.791764984E0,-9.352251892E0,1.177451477E0,1.016014218E1
1.336759117E1,-3.716022491E0,-9.308542786E0,1.113684082E0,1.008454680E1
1.337762317E1,-3.655099182E0,-9.414223022E0,1.039288788E0,1.015221485E1
1.338765417E1,-3.595822449E0,-9.716893616E0,9.419911194E-1,1.040361994E1
1.339768617E1,-3.459306335E0,-1.029873367E1,7.801776123E-1,1.089217117E1
1.340771717E1,-3.309767303E0,-1.078776672E1,6.131250000E-1,1.130072532E1
1.341774917E1,-3.067570953E0,-1.135059631E1,4.812492371E-1,1.176765181E1
1.342778017E1,-2.688559113E0,-1.202060303E1,4.237687683E-1,1.232488650E1
1.343781217E1,-2.211052094E0,-1.283520905E1,4.013154602E-1,1.303044116E1
1.344784317E1,-1.647024994E0,-1.349309097E1,3.498225403E-1,1.359774140E1
1.345787417E1,-9.798623657E-1,-1.408226578E1,-1.257385254E-2,1.411632026E1
1.346790617E1,-2.701881409E-1,-1.499940857E1,-2.621049500E-1,1.500413137E1
1.347793717E1,4.191284180E-1,-1.587553665E1,1.642085266E-1,1.588191730E1
1.348796917E1,1.188827820E0,-1.624377090E1,1.641486511E0,1.636972458E1
1.349800017E1,1.568737793E0,-1.607746674E1,3.343896332E0,1.649628799E1
1.350803217E1,1.208137665E0,-1.503862701E1,4.551734619E0,1.575874954E1
1.351806317E1,-8.128097534E-2,-1.274195297E1,5.723198547E0,1.396849934E1
1.352809517E1,-1.437909851E0,-9.992919617E0,6.621929626E0,1.207377237E1
1.353812617E1,-2.151176605E0,-7.939040680E0,7.096293182E0,1.086339287E1
1.354815817E1,-2.755769348E0,-5.764961700E0,5.778733063E0,8.615265749E0
1.355818917E1,-4.558769989E0,-2.123334503E0,-3.424877930E-1,5.040657806E0
1.356822117E1,-6.720424805E0,5.906716919E-1,-4.650229797E0,8.193756145E0
1.357825217E1,-7.366631012E0,1.057401123E0,-2.976560211E0,8.015314111E0
1.358828417E1,-7.668403473E0,8.662486267E-1,1.287322998E-2,7.717186289E0
1.359831517E1,-7.965685272E0,5.225633240E-1,1.589394836E0,8.139495699E0
1.360834717E1,-8.168663177E0,-1.103954315E0,1.842069397E0,8.446241348E0
1.361837817E1,-6.504124603E0,-3.802841949E0,1.308279419E0,7.647015025E0
1.362841017E1,-4.145180054E0,-5.584886169E0,9.282197571E-1,7.016770135E0
1.363844117E1,-2.904260559E0,-6.405030670E0,1.105600891E0,7.119094086E0
1.364847317E1,-2.054926758E0,-6.680757294E0,1.492845612E0,7.147295294E0
1.365850417E1,-1.346899109E0,-6.679260406E0,1.847757568E0,7.059806288E0
1.366853617E1,-1.023122406E0,-6.618037720E0,2.080074463E0,7.012268712E0
1.367856717E1,-1.010847931E0,-6.846911774E0,2.063459015E0,7.222179552E0
1.368859917E1,-1.254690857E0,-7.274871826E0,1.838776245E0,7.607831972E0
1.369863017E1,-1.723515930E0,-7.805967407E0,1.608854370E0,8.154265553E0
1.370866217E1,-2.245480499E0,-8.496331787E0,1.475481720E0,8.911053968E0
1.371869317E1,-2.672392731E0,-9.057514801E0,1.344803467E0,9.538802527E0
1.372872417E1,-2.884950714E0,-9.334289246E0,1.194665680E0,9.842719260E0
1.373875617E1,-2.851270752E0,-9.452243958E0,9.824070740E-1,9.921682538E0
1.374878717E1,-2.881807251E0,-9.901010742E0,9.108558655E-1,1.035202807E1
1.375881917E1,-3.102298737E0,-1.105570953E1,1.204994202E0,1.154577766E1
1.376885017E1,-3.452570343E0,-1.232297424E1,1.822011108E0,1.292654868E1
1.377888217E1,-3.815415802E0,-1.329175964E1,2.032024384E0,1.397703099E1
1.378891317E1,-3.986210632E0,-1.438957672E1,1.983225861E0,1.506263517E1
1.379894517E1,-3.811074829E0,-1.506856476E1,1.826651459E0,1.565000290E1
1.380897617E1,-3.354224854E0,-1.536360123E1,1.758094025E0,1.582346238E1
1.381900817E1,-2.725382538E0,-1.467653000E1,2.068398743E0,1.507005362E1
1.382903917E1,-1.678908691E0,-1.315913544E1,2.034718781E0,1.342094111E1
1.383907117E1,-1.193468170E0,-1.244512024E1,1.839674377E0,1.263684240E1
1.384910217E1,-9.102571106E-1,-1.166569107E1,1.518592072E0,1.179928125E1
1.385913417E1,4.959187317E-1,-1.062221100E1,-2.766247559E-1,1.063737858E1
1.386916517E1,2.533032532E0,-9.757459259E0,-2.315834198E0,1.034346910E1
1.387919717E1,2.617906036E0,-9.150022430E0,-1.473086700E0,9.630489443E0
1.388922817E1,1.569486237E0,-9.021739197E0,1.805245972E-1,9.159020379E0
1.389926017E1,4.688250732E-1,-9.112001495E0,1.456620941E0,9.239594838E0
1.390929117E1,-4.326004028E-1,-9.225615234E0,1.998194733E0,9.449439229E0
1.391932317E1,-1.292711792E0,-9.407337341E0,2.006577301E0,9.705434153E0
1.392935417E1,-1.807790680E0,-9.377549286E0,1.825753326E0,9.723163732E0
1.393938617E1,-1.644629974E0,-9.051826630E0,1.430874481E0,9.310626986E0
1.394941717E1,-1.274300079E0,-8.810528412E0,1.194066925E0,8.981928936E0
1.395944917E1,-1.096320190E0,-8.713679810E0,1.073866882E0,8.847786382E0
1.396948017E1,-9.792636108E-1,-8.856033783E0,1.007704468E0,8.966814366E0
1.397951217E1,-9.059161377E-1,-9.039851532E0,1.111289062E0,9.152844539E0
1.398954317E1,-1.010698242E0,-9.321266327E0,1.295855255E0,9.465028141E0
1.399957417E1,-1.093326416E0,-9.797725525E0,1.403930511E0,9.958002259E0
1.400960617E1,-1.411714325E0,-1.056203613E1,1.637594604E0,1.078106028E1
1.401963717E1,-1.753154297E0,-1.134730316E1,1.946252747E0,1.164571762E1
1.402966917E1,-1.981279907E0,-1.194605804E1,2.157164154E0,1.229988334E1
1.403970017E1,-2.271526337E0,-1.219603821E1,2.380799103E0,1.263215675E1
1.404973217E1,-2.413730621E0,-1.201476517E1,2.515668640E0,1.251036635E1
1.405976317E1,-2.291434937E0,-1.138652161E1,2.408192139E0,1.186182691E1
1.406979517E1,-2.482737122E0,-1.084584595E1,2.454296265E0,1.139385484E1
1.407982617E1,-3.018922119E0,-1.065813629E1,2.486778717E0,1.135314178E1
1.408985817E1,-3.618575134E0,-1.059870987E1,2.370171204E0,1.144746472E1
1.409988917E1,-4.334087219E0,-1.053149963E1,2.642904053E0,1.169109654E1
1.410992117E1,-4.779560852E0,-1.004950195E1,3.625909882E0,1.170401273E1
1.411995217E1,-5.338049469E0,-9.252708893E0,4.033661957E0,1.141831085E1
1.412998417E1,-5.765111389E0,-9.322164459E0,3.540737000E0,1.151851024E1
1.414001517E1,-5.954766998E0,-9.232500916E0,1.522633667E0,1.109129102E1
1.415004717E1,-5.878425751E0,-9.397757263E0,-2.788700867E-1,1.108834972E1
1.416007817E1,-6.420149231E0,-1.095841187E1,-1.281036072E0,1.276503663E1
1.417011017E1,-7.458240509E0,-1.298145493E1,-1.207987976E0,1.502007851E1
1.418014117E1,-8.729846191E0,-1.414588348E1,2.996768188E-1,1.662546361E1
1.419017317E1,-9.833501129E0,-1.423898987E1,1.741478577E0,1.739193274E1
1.420020417E1,-9.670789490E0,-1.320733521E1,1.479673004E0,1.643615846E1
1.421023633E1,-7.609276428E0,-1.081186661E1,1.210233307E0,1.327637797E1
1.422026733E1,-4.608316956E0,-7.948920135E0,1.412462769E0,9.296072695E0
1.423029933E1,-2.571652222E0,-5.918392639E0,1.697769470E0,6.672569801E0
1.424033033E1,-1.325493622E0,-4.750970306E0,1.643881531E0,5.199134417E0
1.425036133E1,-4.450245667E-1,-4.214186554E0,1.458117828E0,4.481464356E0
1.426039333E1,4.296066284E-1,-4.045038300E0,1.546284485E0,4.351768883E0
1.427042433E1,1.109343109E0,-4.427492981E0,1.409319305E0,4.776977824E0
1.428045633E1,1.827699280E0,-5.312752075E0,9.174421692E-1,5.692760262E0
1.429048733E1,1.642085266E0,-6.701713715E0,8.532257080E-1,6.952510686E0
1.430051933E1,1.007255402E0,-8.146958313E0,1.242566071E0,8.302497434E0
1.431055033E1,6.396199036E-1,-9.514215088E0,2.059118042E0,9.755478946E0
1.432058233E1,6.487509155E-1,-1.067834427E1,2.743045807E0,1.104410315E1
1.433061333E1,1.090482330E0,-1.134805161E1,3.161575470E0,1.183059535E1
1.434064533E1,1.518292694E0,-1.135523666E1,3.349434814E0,1.193588396E1
1.435067633E1,1.378034363E0,-1.059137512E1,3.451672211E0,1.122453771E1
1.436070833E1,-0.000000000E0,-9.337732086E0,3.239712982E0,9.883773607E0
1.437073933E1,-1.925446014E0,-8.459059296E0,2.734812927E0,9.096275516E0
1.438077133E1,-3.439996490E0,-7.918982391E0,2.261048126E0,8.925032022E0
1.439080233E1,-4.364024963E0,-7.691904602E0,2.054477692E0,9.079151330E0
1.440083433E1,-4.913083191E0,-7.666756897E0,1.964963837E0,9.315504851E0
1.441086533E1,-5.189558258E0,-7.658973083E0,1.935325470E0,9.451818253E0
1.442089733E1,-5.570216675E0,-7.617209930E0,2.073937225E0,9.661801930E0
1.443092833E1,-5.920787659E0,-7.633376312E0,2.282004547E0,9.926313776E0
1.444096033E1,-6.215973816E0,-7.716154175E0,2.527344360E0,1.022569485E1
1.445099133E1,-6.436764679E0,-7.803572388E0,2.686912537E0,1.046647890E1
1.446102333E1,-6.574627991E0,-7.820936279E0,2.669997711E0,1.056038187E1
1.447105433E1,-6.573280792E0,-7.806715851E0,2.499352570E0,1.050712120E1
1.448108633E1,-6.486311646E0,-7.713160400E0,2.216740265E0,1.031886716E1
1.449111733E1,-6.254443817E0,-7.551047516E0,1.923799438E0,9.991866208E0
1.450114833E1,-5.936804352E0,-7.424859924E0,1.721120911E0,9.661079029E0
1.451118033E1,-5.603297882E0,-7.465126190E0,1.629511414E0,9.475250057E0
1.452121133E1,-5.277275848E0,-7.529043274E0,1.576371918E0,9.328509068E0
1.453124333E1,-5.081932068E0,-7.694598999E0,1.522483978E0,9.346167384E0
1.454127433E1,-4.925207977E0,-7.896080017E0,1.434467010E0,9.416127063E0
1.455130633E1,-4.875211945E0,-8.178093567E0,1.249601440E0,9.602625144E0
1.456133733E1,-4.592749329E0,-8.111182709E0,9.654922485E-1,9.371062192E0
1.457136933E1,-3.729195099E0,-7.181166687E0,8.345146179E-1,8.134646011E0
1.458140033E1,-2.799478455E0,-6.689139862E0,9.767189026E-1,7.316806101E0
1.459143233E1,-1.886826324E0,-6.866071930E0,1.153950348E0,7.213505301E0
1.460146333E1,-1.315913544E0,-7.888595581E0,1.139580231E0,8.078379280E0
1.461149533E1,-1.859882355E0,-9.474397888E0,1.019978943E0,9.708951270E0
1.462152633E1,-3.141666870E0,-1.064152084E1,1.038989410E0,1.114412561E1
1.463155833E1,-4.257446594E0,-1.170565796E1,1.689386902E0,1.256989689E1
1.464158933E1,-4.899162140E0,-1.204590042E1,2.346071320E0,1.321399097E1
1.465162133E1,-4.748874664E0,-1.152079239E1,2.360740814E0,1.268280588E1
1.466165233E1,-4.319567413E0,-1.072684341E1,2.111209717E0,1.175504312E1
1.467168333E1,-4.198918304E0,-9.905651093E0,2.124831390E0,1.096666526E1
1.468171533E1,-4.140090637E0,-9.106912079E0,2.384990387E0,1.028418092E1
1.469174633E1,-4.016148376E0,-8.234077148E0,2.587668915E0,9.519742889E0
1.470177833E1,-3.888014832E0,-7.490273895E0,2.645748138E0,8.844254947E0
1.471180933E1,-3.854634247E0,-7.002887421E0,2.553839264E0,8.391706167E0
1.472184133E1,-3.843856659E0,-6.761589203E0,2.253863068E0,8.097791137E0
1.473187233E1,-3.793411560E0,-6.708150330E0,1.919608154E0,7.941923418E0
1.474190433E1,-3.555705872E0,-6.770271149E0,1.589544525E0,7.810650899E0
1.475193533E1,-3.300037537E0,-7.015461273E0,1.275347900E0,7.857064139E0
1.476196733E1,-3.172203369E0,-7.287894745E0,1.081950073E0,8.021651949E0
1.477199833E1,-3.096311188E0,-7.555687866E0,9.307644653E-1,8.218386982E0
1.478203033E1,-3.052602081E0,-7.812404022E0,8.174501038E-1,8.427351941E0
1.479206133E1,-3.015778656E0,-8.033793640E0,7.271878052E-1,8.611943059E0
1.480209333E1,-3.058290253E0,-8.277037811E0,6.866221619E-1,8.850646541E0
1.481212433E1,-3.112327881E0,-8.562943268E0,6.724017334E-1,9.135792595E0
1.482215633E1,-3.213068390E0,-8.822802887E0,6.489006042E-1,9.412052446E0
1.483218733E1,-3.331023102E0,-9.160201263E0,6.027964783E-1,9.765672823E0
1.484221933E1,-3.465293884E0,-9.590706024E0,5.532495117E-1,1.021254076E1
1.485225033E1,-3.612288208E0,-1.015263748E1,3.604504395E-1,1.078214257E1
1.486228133E1,-3.742966461E0,-1.076920532E1,-3.921844482E-2,1.140118938E1
1.487231333E1,-3.681893463E0,-1.113968491E1,-8.110134888E-1,1.176038529E1
1.488234433E1,-3.447181549E0,-1.121303238E1,-2.074985046E0,1.191304825E1
1.489237633E1,-3.322790222E0,-1.093356354E1,-3.031046906E0,1.182247824E1
1.490240733E1,-3.663032684E0,-1.054886353E1,-2.521207123E0,1.144783016E1
1.491243933E1,-4.054169312E0,-1.017988083E1,-7.544311523E-1,1.098341608E1
1.492247033E1,-4.256249084E0,-1.004501129E1,8.216413879E-1,1.094042973E1
1.493250233E1,-4.570445709E0,-1.043869263E1,1.683549042E0,1.151909784E1
1.494253333E1,-5.040318604E0,-1.100870728E1,1.992955627E0,1.227062833E1
1.495256533E1,-5.414241028E0,-1.149220184E1,1.800006866E0,1.283061705E1
1.496259633E1,-5.515430603E0,-1.175251053E1,8.550219727E-1,1.301047812E1
1.497262833E1,-5.341641998E0,-1.183783310E1,-1.037342834E0,1.302856523E1
1.498265933E1,-4.857848053E0,-1.247595612E1,-3.601211243E0,1.386423064E1
1.499269133E1,-4.396507416E0,-1.278266830E1,-5.236560516E0,1.449646345E1
1.500272233E1,-3.773353271E0,-1.240694962E1,-5.076692963E0,1.392635649E1
1.501275433E1,-2.434088287E0,-1.163934586E1,-4.062851257E0,1.256606215E1
1.502278533E1,-1.439556427E0,-1.086545517E1,-3.010090485E0,1.136622556E1
1.503281733E1,-5.287005615E-1,-1.097143478E1,-2.393672333E0,1.124195591E1
1.504284833E1,1.404080200E-1,-1.138936569E1,-1.312021637E0,1.146554691E1
1.505287933E1,8.816665649E-2,-1.193333450E1,5.625302124E-1,1.194691115E1
1.506291133E1,-5.875282288E-1,-1.240545273E1,2.258802795E0,1.262309934E1
1.507294233E1,-1.168320465E0,-1.253104156E1,2.863694916E0,1.290708038E1
1.508297433E1,-9.514215088E-1,-1.281350418E1,1.659598846E0,1.295551468E1
1.509300533E1,-1.411564636E0,-1.324415863E1,5.496569824E-1,1.333050544E1
1.510303733E1,-2.273921356E0,-1.318398376E1,1.606908417E0,1.347480244E1
1.511306833E1,-1.839075623E0,-1.285945862E1,2.990181885E0,1.333000611E1
1.512310033E1,-1.213975525E0,-1.267264709E1,3.454665985E0,1.319107418E1
1.513313133E1,-1.149459686E0,-1.269225632E1,3.178340607E0,1.313455279E1
1.514316333E1,-1.475631409E0,-1.275976593E1,2.896177368E0,1.316726843E1
1.515319433E1,-1.830693054E0,-1.289852737E1,2.801873474E0,1.332568724E1
1.516322633E1,-2.638712769E0,-1.298474808E1,2.680924988E0,1.351864810E1
1.517325733E1,-3.754791870E0,-1.258358231E1,2.204914856E0,1.331565451E1
1.518328933E1,-4.776716766E0,-1.175415710E1,1.248852997E0,1.274899471E1
1.519332033E1,-5.653443604E0,-1.071681427E1,3.953279114E-1,1.212302837E1
1.520335233E1,-5.524262238E0,-9.655670929E0,-1.908531189E-1,1.112591027E1
1.521338367E1,-4.974305878E0,-8.753946075E0,-2.552192688E-1,1.007176388E1
1.522341567E1,-4.061653748E0,-8.123157806E0,-6.077362061E-2,9.082203331E0
1.523344667E1,-3.334465942E0,-7.747738495E0,2.224374390E-1,8.437748119E0
1.524347767E1,-2.873125305E0,-7.566465454E0,4.956193542E-1,8.108753729E0
1.525350967E1,-2.649490356E0,-7.719597015E0,7.604187012E-1,8.196963696E0
1.526354067E1,-2.433190155E0,-7.584727478E0,7.725434875E-1,8.002832541E0
1.527357267E1,-2.111808472E0,-7.118896179E0,5.463638306E-1,7.445598113E0
1.528360367E1,-1.855990448E0,-6.592890015E0,2.965333557E-1,6.855569365E0
1.529363567E1,-1.688937836E0,-6.056854706E0,1.636097717E-1,6.290053108E0
1.530366667E1,-1.653760986E0,-5.463638306E0,1.148112488E-1,5.709592854E0
1.531369867E1,-1.692680054E0,-4.844525757E0,2.408491516E-1,5.137373248E0
1.532372967E1,-1.656156006E0,-4.603826294E0,2.207908630E-1,4.897633905E0
1.533376167E1,-1.619033203E0,-4.490062866E0,1.893562317E-1,4.776796922E0
1.534379267E1,-1.550026703E0,-4.124523010E0,2.317181396E-1,4.412251822E0
1.535382467E1,-1.446442108E0,-4.038901062E0,2.739303589E-1,4.298831749E0
1.536385567E1,-1.354682922E0,-4.275558929E0,4.070036316E-1,4.503467768E0
1.537388767E1,-1.251697083E0,-4.511468353E0,5.159770203E-1,4.710236148E0
1.538391867E1,-1.068328400E0,-4.666695557E0,5.833369446E-1,4.822826451E0
1.539395067E1,-7.514373779E-1,-4.806504822E0,5.343887329E-1,4.894151413E0
1.540398167E1,-3.884422302E-1,-5.047803040E0,4.113446045E-1,5.079410131E0
1.541401367E1,-1.196012878E-1,-5.507646790E0,1.163081360E-1,5.510172884E0
1.542404467E1,1.654060364E-1,-6.437363434E0,-1.492396545E-1,6.441217246E0
1.543407567E1,7.059320068E-1,-7.061415710E0,-1.475481720E0,7.248377621E0
1.544410767E1,2.469863892E-2,-6.085295563E0,-8.894503784E-1,6.150004397E0
1.545413867E1,-7.741900635E-1,-7.178771667E0,1.619631958E-1,7.222213302E0
1.546417067E1,-1.434916077E0,-8.922645264E0,-1.722468109E0,9.199971687E0
1.547420167E1,-2.620450745E0,-1.039468414E1,-4.542753296E0,1.164271566E1
1.548423367E1,-4.564607849E0,-1.243823456E1,-8.241112518E0,1.560324515E1
1.549426467E1,-7.452552338E0,-1.463776062E1,-1.341330688E1,2.120663514E1
1.550429667E1,-1.111483658E1,-1.647114807E1,-1.821532104E1,2.695619097E1
1.551432767E1,-1.392015289E1,-1.681228867E1,-1.830109268E1,2.848427110E1
1.552435967E1,-1.448088684E1,-1.486873032E1,-1.362646362E1,2.482852665E1
1.553439067E1,-1.264615219E1,-1.222956848E1,-9.034013672E0,1.977627148E1
1.554442267E1,-9.806108093E0,-9.554181976E0,-6.786587219E0,1.528070402E1
1.555445367E1,-7.016209717E0,-7.016509094E0,-5.117408295E0,1.116451819E1
1.556448567E1,-5.472769318E0,-5.258714447E0,-3.272794189E0,8.265377393E0
1.557451667E1,-4.810097351E0,-4.814138947E0,-1.786085815E0,7.035842015E0
1.558454867E1,-4.246070251E0,-4.847070465E0,-9.497749329E-1,6.513468899E0
1.559457967E1,-3.970343628E0,-5.097799072E0,1.685494995E-1,6.463713549E0
1.560461167E1,-4.166435852E0,-5.203030243E0,1.845961304E0,6.916522577E0
1.561464267E1,-2.732417908E0,-7.422165527E0,4.120930481E0,8.918335986E0
1.562467367E1,-1.710792389E0,-1.065574127E1,7.182813263E0,1.296396695E1
1.563470567E1,-2.179168396E0,-1.358350296E1,6.884034576E0,1.538344109E1
1.564473667E1,-1.727557526E0,-1.677441742E1,6.406527557E0,1.803910004E1
1.565476867E1,-1.583706665E-1,-1.896765656E1,3.901337128E0,1.936536878E1
1.566479967E1,1.248254242E0,-1.920027283E1,3.642525330E0,1.958255872E1
1.567483167E1,1.976938934E0,-1.811652649E1,2.705174561E0,1.842375610E1
1.568486267E1,3.934717712E0,-1.508982056E1,-1.288969574E0,1.564755989E1
1.569489467E1,4.010011139E0,-1.101529358E1,-2.317780151E0,1.194943458E1
1.570492567E1,2.959944763E0,-8.246800690E0,-8.669970703E-1,8.804696391E0
1.571495767E1,2.595752106E0,-6.494394836E0,4.580474854E-2,6.994082596E0
1.572498867E1,2.289339294E0,-5.292244720E0,3.356021118E-1,5.775946447E0
1.573502067E1,2.345771942E0,-4.743635559E0,1.734892273E-1,5.294792048E0
1.574505167E1,2.891087952E0,-4.900509338E0,-1.480421448E-1,5.691686727E0
1.575508367E1,2.933449860E0,-6.178551636E0,-7.035369873E-2,6.839925295E0
1.576511467E1,2.298619995E0,-7.418123932E0,-1.971400452E-1,7.768595803E0
1.577514667E1,1.827100525E0,-7.866441650E0,-5.774990845E-1,8.096462546E0
1.578517767E1,1.014440460E0,-7.595505066E0,-8.376580811E-1,7.708596352E0
1.579520967E1,-2.855462036E0,1.121767273E0,5.731431427E0,6.500871592E0
1.580524067E1,-6.501579895E0,2.699486389E0,-4.052522736E0,8.122851003E0
1.581527267E1,-5.958060150E0,2.561174011E-1,-5.404211884E0,8.047955204E0
1.582530367E1,-1.273851013E-1,-8.563691711E0,-1.545386353E0,8.702945574E0
1.583533567E1,-7.403604126E-1,-9.617350616E0,-3.140469360E0,1.014416651E1
1.584536667E1,-1.954335938E0,-7.915539551E0,-1.293759613E0,8.255241321E0
1.585539767E1,-2.296823730E0,-8.584348755E0,5.513035583E-1,8.903391399E0
1.586542967E1,-7.628137207E-1,-1.079989151E1,3.339854736E0,1.133023261E1
1.587546067E1,6.794371033E-1,-1.186911804E1,6.665039978E0,1.362939308E1
1.588549267E1,1.708097992E0,-1.200713104E1,9.295370178E0,1.528046797E1
1.589552367E1,3.378624115E0,-1.251038452E1,1.022523651E1,1.650697681E1
1.590555567E1,5.315296783E0,-1.203227875E1,9.349557495E0,1.613822596E1
1.591558667E1,5.867498474E0,-1.169413193E1,9.313632202E0,1.606001260E1
1.592561867E1,4.141587524E0,-9.829908600E0,9.245673523E0,1.411603093E1
1.593564967E1,1.552272034E0,-8.872349854E0,1.017089951E1,1.358585062E1
1.594568167E1,5.867797852E-2,-8.869954834E0,1.172317154E1,1.470075824E1
1.595571267E1,-8.259823608E-1,-1.003992188E1,1.330553101E1,1.668890151E1
1.596574467E1,-2.138752441E0,-1.278521301E1,1.420650742E1,1.923176504E1
1.597577567E1,-3.550766144E0,-1.500734207E1,1.462324081E1,2.125246875E1
1.598580767E1,-4.485272827E0,-1.475466751E1,1.247490829E1,1.983535285E1
1.599583867E1,-5.152585144E0,-1.437939789E1,9.088500366E0,1.777405570E1
1.600587067E1,-4.177512817E0,-1.360191467E1,3.461102600E0,1.464386996E1
1.601590167E1,4.517306213E0,-6.807843018E-1,-1.193408295E1,1.277857028E1
1.602593367E1,-2.045196991E0,-1.650437897E1,-6.145620117E0,1.772980548E1
1.603596467E1,-1.512305145E0,-9.833950195E0,-3.899391174E0,1.068638830E1
1.604599667E1,-2.221979370E0,-8.658444672E0,1.125060425E0,9.009529256E0
1.605602767E1,-3.448379059E0,-7.928562469E0,3.250041504E0,9.236676391E0
1.606605867E1,-3.357218628E0,-5.752537537E0,-4.394860840E-1,6.675009591E0
1.607609067E1,-8.130043488E0,-1.355461304E1,-2.533481598E0,1.600761290E1
1.608612167E1,-9.868528290E0,-1.494522125E1,-4.671635284E0,1.850869161E1
1.609615367E1,-1.156031021E1,-1.727063553E1,-5.437891846E0,2.148223199E1
1.610618467E1,-1.265528320E1,-1.962898132E1,-5.445226593E0,2.398131759E1
1.611621667E1,-1.211580505E1,-2.075314362E1,-5.789510651E0,2.471849784E1
1.612624767E1,-9.946067047E0,-2.131088379E1,-5.380261688E0,2.412519914E1
1.613850117E1,-2.078128510E0,4.188290405E0,6.469396820E0,7.982073029E0
1.614853217E1,-2.352358246E0,4.287234650E0,7.393574982E0,8.864475239E0
1.615856417E1,-2.839145966E0,4.412075043E0,8.553213501E0,1.003417247E1
1.616859517E1,-3.071313171E0,4.669240265E0,8.684490509E0,1.032739777E1
1.617862717E1,-3.105292511E0,4.725074158E0,8.037535858E0,9.827062127E0
1.618865817E1,-2.882555695E0,4.730762329E0,7.419022064E0,9.259110537E0
1.619869017E1,-2.933000793E0,4.647385712E0,7.316784668E0,9.150739068E0
1.620872217E1,-2.880310364E0,4.748425598E0,7.650590515E0,9.453849411E0
1.621875317E1,-2.917433167E0,4.805457001E0,7.860603790E0,9.664001512E0
1.622878517E1,-3.143612823E0,4.797373810E0,7.633226624E0,9.547944582E0
1.623881617E1,-3.393742676E0,4.892875214E0,7.423363037E0,9.516513857E0
1.624884817E1,-3.633993073E0,4.852459259E0,7.563920746E0,9.693562996E0
1.625887917E1,-3.919150085E0,4.856949921E0,7.997419281E0,1.014437850E1
1.626891117E1,-3.817361755E0,4.684508514E0,8.443491669E0,1.038313163E1
1.627894217E1,-3.683689728E0,4.425247650E0,9.196575623E0,1.085031750E1
1.628897417E1,-3.567680969E0,4.424499207E0,9.923014984E0,1.143550467E1
1.629900517E1,-3.479214935E0,4.414320374E0,9.989626465E0,1.146227717E1
1.630903717E1,-3.403173065E0,4.503235474E0,9.658515015E0,1.118694011E1
1.631906817E1,-3.021017761E0,4.571792908E0,9.198222198E0,1.070677964E1
1.632910017E1,-2.776426392E0,4.607718201E0,8.855884094E0,1.036177078E1
1.633913117E1,-2.568359070E0,4.493505707E0,8.793463898E0,1.020358119E1
1.634916317E1,-2.602488098E0,4.349505157E0,8.912765808E0,1.025322065E1
1.635919417E1,-2.642904053E0,4.331243134E0,9.025331726E0,1.035380228E1
1.636922617E1,-2.794538727E0,4.036506042E0,9.095236359E0,1.033567376E1
1.637925817E1,-3.038830719E0,3.709885254E0,9.345366211E0,1.050398069E1
1.638928917E1,-3.359913025E0,3.490591278E0,9.980944519E0,1.109470579E1
1.639932117E1,-3.825744324E0,3.216211853E0,1.061038559E1,1.172862399E1
1.640935217E1,-4.085005188E0,3.107238464E0,1.085557571E1,1.200773594E1
1.641938417E1,-4.325704651E0,2.985990601E0,1.088895630E1,1.209120465E1
1.642941492E1,-4.469555511E0,2.931204529E0,1.070498886E1,1.196518587E1
1.643944692E1,-4.487817535E0,2.910248108E0,1.028316605E1,1.159109806E1
1.644947792E1,-4.417164459E0,2.895877991E0,9.571845245E0,1.093241385E1
1.645950992E1,-4.283941498E0,3.005749512E0,8.782536621E0,1.022348445E1
1.646954092E1,-4.219874725E0,3.165916443E0,8.124055939E0,9.686622451E0
1.647957292E1,-4.195774841E0,3.197500763E0,7.617658997E0,9.265919611E0
1.648960392E1,-4.114793243E0,3.004701691E0,7.364385681E0,8.955106484E0
1.649963592E1,-4.020938416E0,2.845133514E0,7.403155060E0,8.892099600E0
1.650966692E1,-4.137545929E0,2.778522034E0,7.567812653E0,9.061526326E0
1.651969892E1,-4.275708618E0,2.828518066E0,7.640411682E0,9.200983062E0
1.652972992E1,-4.489464111E0,2.810555420E0,7.848928070E0,9.468906042E0
1.653976192E1,-4.674030304E0,2.819237366E0,8.199648743E0,9.850324772E0
1.654979292E1,-5.021008759E0,2.849624176E0,8.810229034E0,1.053332913E1
1.655982492E1,-5.312901764E0,2.771786041E0,9.238638153E0,1.101190982E1
1.656985592E1,-6.242319031E0,2.548899536E0,9.380992126E0,1.155276802E1
1.657988792E1,-6.869215393E0,2.826721802E0,9.024283905E0,1.168820672E1
1.658991992E1,-5.563031616E0,3.120411072E0,8.679401093E0,1.077108580E1
1.659995092E1,-4.607867889E0,2.800226898E0,8.317304077E0,9.912177575E0
1.660998292E1,-4.156406708E0,2.494562531E0,7.597001953E0,9.011825432E0
1.662001392E1,-3.467539215E0,2.566712494E0,7.108417969E0,8.315133628E0
1.663004592E1,-3.179837494E0,2.804418182E0,7.155120850E0,8.316963521E0
